Header,foot_Accel_X,foot_Accel_Y,foot_Accel_Z,foot_Gyro_X,foot_Gyro_Y,foot_Gyro_Z,shank_Accel_X,shank_Accel_Y,shank_Accel_Z,shank_Gyro_X,shank_Gyro_Y,shank_Gyro_Z,thigh_Accel_X,thigh_Accel_Y,thigh_Accel_Z,thigh_Gyro_X,thigh_Gyro_Y,thigh_Gyro_Z,trunk_Accel_X,trunk_Accel_Y,trunk_Accel_Z,trunk_Gyro_X,trunk_Gyro_Y,trunk_Gyro_Z
93.045,-1.11737710219291,-0.414481496729976,0.700873262122763,2.11200678908669,-4.32539509752432,2.13440045823171,-0.887826348998243,-0.40571239184509,-0.585552120488986,0.771542767132431,-4.72416410269283,2.15622019383596,-0.592035513830341,-0.21318394943819,-0.275100868392983,0.831661800485962,0.687954895214202,2.01371039813658,-0.853132052973394,-0.0598060716262078,0.104666461625738,1.021854139285,-0.237963950621524,-0.000758197882973969
93.05,-1.13565116143285,-0.385311768751211,0.650180141388174,2.13434969069547,-4.30417192424916,1.96202770545807,-0.905449438326899,-0.342194645364577,-0.602431622945276,1.01377155247803,-4.75614703626294,2.18992767165805,-0.611143658931689,-0.173603019448473,-0.250700270500107,0.58781784889833,0.621817467937955,1.89168245481006,-0.844553041897159,-0.0679615757948328,0.107040626263319,1.01967883358437,-0.21819808004641,-0.0145734075609599
93.055,-1.15675268743207,-0.325574275201778,0.608644151603149,2.13433690597006,-4.27092554658503,1.81713007327177,-0.915057580167912,-0.268783903213503,-0.619799883367065,1.14377482296301,-4.7672629898043,2.2105545737002,-0.636048963008118,-0.139365381741316,-0.225632305129949,0.320503187792375,0.550457716405235,1.79234018567482,-0.844864988826089,-0.0722100916874073,0.108612878237166,1.01981920949037,-0.213091176381006,-0.0170222810369228
93.06,-1.17708619368154,-0.249149599495743,0.563134170791078,2.094647298201,-4.22091246238278,1.66624194679247,-0.920959874437466,-0.191645563652009,-0.639293213417822,1.22134503745386,-4.77590287277787,2.23391738590729,-0.656245074521254,-0.109114279862728,-0.203168683616621,0.0115999940943336,0.466061191420368,1.68084556323895,-0.844650632356317,-0.0776862296795394,0.103017547007585,1.01042614758771,-0.205204396565816,-0.0119454381326729
93.065,-1.19213429832867,-0.151223334891278,0.511075163839564,2.00909443074121,-4.1411611003554,1.48761944300241,-0.928787985174194,-0.089643508892655,-0.661742256048378,1.23317187810926,-4.77865050035351,2.27319111292983,-0.661739549605725,-0.0892138970511561,-0.19340125925651,-0.32474317209948,0.395409222258977,1.55247788933532,-0.848012956272572,-0.0849393597869341,0.102121155508247,1.00444416455401,-0.216171349246948,0.00201249998506675
93.07,-1.19473223930867,-0.0406461112038071,0.48414230301991,1.88828922445449,-4.03344322216296,1.31647857856249,-0.952120478752517,-0.0104434131467653,-0.665830726706347,1.09344978761343,-4.79282516939123,2.31976511016354,-0.664420924229712,-0.0617321632628909,-0.179723243445462,-0.708960547488931,0.321613806643837,1.41518592270994,-0.85027187674576,-0.0874772464760453,0.104899099945595,1.00081610696978,-0.21992093987269,0.0137943508865182
93.075,-1.27771425889291,0.0663357639876803,0.498117852435292,1.71405569178852,-3.8846168675551,1.20003678019242,-0.979374696048282,0.0574700493380516,-0.702446979372387,0.891668673747968,-4.79836452810949,2.34744550248613,-0.65694587472176,-0.0399023953757933,-0.172891060700767,-1.00783939887008,0.258539991959988,1.28870565475479,-0.85307739316574,-0.0883061807254965,0.113750247817993,1.02030481406647,-0.221958643404941,0.0199916747037833
93.08,-1.39768136321984,0.146860100098309,0.557567194468231,1.57450535547377,-3.77895245267426,1.13789590716075,-1.01630828631424,0.0976593838277904,-0.768780618745436,0.628178824549245,-4.78918571182323,2.35713369042674,-0.64874399977446,-0.0305556193518479,-0.1712887276407,-1.22607881915129,0.207775828199905,1.17889331613482,-0.859318590218946,-0.0887422288419751,0.126265475709239,1.05354482036922,-0.212441762089947,0.0213661471713688
93.085,-1.5488538297979,0.193787175980199,0.628068501274954,1.50232025412171,-3.72275375910203,1.15776674951635,-1.04753955599723,0.112400057790515,-0.847410297001939,0.326321770307189,-4.77063283637737,2.35128876835199,-0.639933409931358,-0.0288959189881584,-0.16867657428071,-1.40431710035912,0.158915469168529,1.06529964833836,-0.86978072857403,-0.0882188517571964,0.136796289202274,1.07916311281253,-0.187141761596641,0.0192647236871681
93.09,-1.68257845237964,0.217293682522826,0.664872469457963,1.49674111753179,-3.71372303826275,1.2519589620705,-1.06327578141481,0.108567412056568,-0.918211805311024,-0.00284329665016912,-4.75111227735756,2.33123340668585,-0.623600499730287,-0.0244302135495918,-0.157644934762602,-1.58488420507786,0.0965632708694939,0.916612873225183,-0.880496460601203,-0.0836476774957714,0.1360337810065,1.07323419426886,-0.164414280687927,0.0123476631011087
93.095,-1.74327230091163,0.233399934914438,0.63169056505872,1.53911207313486,-3.73817624159729,1.39509830412258,-1.06984468271834,0.0917474475062261,-0.959686578355678,-0.380555145850633,-4.74017846295658,2.29445636602791,-0.600846278068817,-0.0173082448359919,-0.136878496971472,-1.74104185871334,0.0179871436543202,0.74653037778685,-0.894013908679871,-0.0807762686139031,0.120910227551731,1.06626422752319,-0.18712857944248,0.00818969220315308
93.1,-1.73708846132458,0.243973962113157,0.546436445543213,1.60930325077317,-3.74427983089293,1.56905030126369,-1.08392350041774,0.0512945341991566,-0.965537357143172,-0.731161879377536,-4.72790133417442,2.26052073338917,-0.584966519207635,-0.0166237718280854,-0.128748446408815,-1.83236775610407,-0.0593240291073475,0.632988242342693,-0.894832356862771,-0.0738270785624308,0.117503668862559,1.06964953928852,-0.198338629097611,0.00110462241721767
93.105,-1.71876013771925,0.221791720366959,0.467462068030585,1.63831675538838,-3.69702718881882,1.73379288978407,-1.10029064002163,-0.0216160936639007,-0.963959107252515,-1.00693596913029,-4.70712344587322,2.23271519070546,-0.563313528161727,-0.0091273099074682,-0.116142583916124,-1.87454144186386,-0.119083442663686,0.546979604008619,-0.899685607705948,-0.07186079329517,0.124382017932238,1.075645371268,-0.196830375774391,-0.00427915179925384
93.11,-1.69468547381844,0.177929815637283,0.400882001606636,1.65799593030702,-3.59154255467508,1.90352160699127,-1.12316662200877,-0.104811830371239,-0.965553770956417,-1.17114108680155,-4.67362085752414,2.20479261441015,-0.54044605968786,-0.000386508538279226,-0.105228189415618,-1.88734579086304,-0.160905816127541,0.485310716478078,-0.910520763102796,-0.0719810312973192,0.135199995982446,1.08259762285067,-0.185900329175246,-0.00761161243447738
93.115,-1.68942067776546,0.123568019181224,0.358256279670016,1.6485622600791,-3.44943261763638,2.04642932185529,-1.14794710659564,-0.183088520301727,-0.97376836485439,-1.21290522848042,-4.6336702683859,2.17695817513181,-0.523279636735579,0.00414941721141309,-0.100150469545951,-1.89207024190357,-0.186725020621848,0.445478729554314,-0.91807872619714,-0.0651715340760338,0.144581570171747,1.09305485536494,-0.170843763851257,-0.0114348731015886
93.12,-1.71247152879246,0.0532184683689726,0.352965632305291,1.60831854282716,-3.29777808353733,2.1411777399108,-1.16578988879673,-0.246870585464094,-0.987584226838168,-1.1409976744042,-4.59411214647347,2.15203414964745,-0.51557378435066,0.00586817091581653,-0.093380507230879,-1.91164449466655,-0.197754406600475,0.41419928824538,-0.923415610891674,-0.0614202202455027,0.158163820290482,1.09812380519084,-0.172871378404917,-0.013462478381151
93.125,-1.75435147863446,-0.0557919034000599,0.39576498577089,1.56092390276393,-3.1601145303422,2.18294808895195,-1.17060298482906,-0.289588026891,-1.00431875452545,-0.963033621347303,-4.5418289661894,2.12890880626783,-0.514707376303564,-0.00522232032225772,-0.0851673398072053,-1.90665005043871,-0.204746711368686,0.387229011626433,-0.920066331929349,-0.060408772014888,0.163161938055838,1.10131196809032,-0.204752128453686,-0.0199895713374677
93.13,-1.79529520998942,-0.223557600771944,0.459005069575198,1.55187309222895,-3.06759519918085,2.15378433340776,-1.1697598804534,-0.303389036815539,-1.02461895716592,-0.707742105256662,-4.48946142784206,2.11983901457364,-0.510657006656623,-0.00492606381075781,-0.0739079071946135,-1.87893842208158,-0.206117063760757,0.317946736975569,-0.916736358702314,-0.0565621494325209,0.170787980305853,1.09468184051213,-0.233043851214803,-0.0194470975716407
93.135,-1.81992237511632,-0.386269670576204,0.49091221816863,1.55145895491815,-3.0079854320008,2.02205611541955,-1.17250470805899,-0.292544210893767,-1.03078902604904,-0.396534826403441,-4.43474328696637,2.11901173114167,-0.519803934604414,-0.00281488341922296,-0.0586860656449839,-1.81008748484932,-0.206117063760757,0.244860614910912,-0.913353008913524,-0.0583332169488999,0.178995896797847,1.08929055083331,-0.249641611130023,-0.0201275884675122
93.14,-1.83477197383901,-0.545799740834279,0.516723517270316,1.56586920373149,-2.97388686257439,1.79705765460874,-1.1692891165999,-0.278451299715444,-1.04019612290818,-0.0378588950213895,-4.375356734993,2.1253558707806,-0.54239842462349,0.00365061008432182,-0.0394562495729062,-1.70221996275079,-0.207548055808154,0.180383176686022,-0.908167638934186,-0.0661283242421824,0.185759305177672,1.08765815320575,-0.254913568496704,-0.0267933688996679
93.145,-1.85953729593382,-0.737792974153335,0.535700316689479,1.64409385393203,-2.97117139020444,1.44732098944597,-1.15701282072097,-0.273430116824933,-1.05691084749581,0.353475537931108,-4.30348395756632,2.13526470894289,-0.573556687717352,0.0213329501689432,-0.0173953822729843,-1.5642029062776,-0.211003839969635,0.12508637538952,-0.899040923634285,-0.0680057885915257,0.191662159761018,1.07782335481771,-0.254839128309146,-0.0356856464309849
93.15,-1.89446855652244,-0.954924462955255,0.539939544244789,1.80742664847313,-2.99959280713472,0.983934361450524,-1.14136782714147,-0.278201137831851,-1.06724179433764,0.754375880757054,-4.20645264646557,2.14205824017248,-0.618031310325307,0.0557655773778928,0.00250552520778829,-1.39264638660533,-0.211003839969635,0.0834661584137273,-0.90158953447095,-0.0754093449880147,0.195350914552947,1.07681082665899,-0.232562817199749,-0.0488489200546913
93.155,-1.88737883003812,-1.07151367057504,0.518465459669906,1.99449504845813,-3.03947550236466,0.531931215718754,-1.13083029991439,-0.285553719328503,-1.06017235143146,1.13177823243833,-4.10808221046315,2.1430040813509,-0.650691093641205,0.0978332369040289,0.00554315135716458,-1.25455746438497,-0.19009810529415,0.0601501421539366,-0.905020650288894,-0.0763611232705625,0.205719730554116,1.07736093285101,-0.197045441053984,-0.0605941881935229
93.16,-1.89651968937532,-1.15801273374743,0.501128243548182,2.26254214775689,-3.07009216418097,0.0208226211103289,-1.11432125836447,-0.300299587358999,-1.06345113392448,1.56655170269058,-4.00988215464322,2.14946560328545,-0.692916746983925,0.148220814915792,-0.00455131294782855,-1.14891430089774,-0.151645593652516,0.0533918206525768,-0.910384908136358,-0.0770286515967845,0.21146332661658,1.07782673835754,-0.162197496646232,-0.0740586985381513
93.165,-1.91570600125416,-1.23700782262914,0.475203284048063,2.59125085965559,-3.1026540486199,-0.480656124106311,-1.10440066639355,-0.337007699359212,-1.0655241183898,2.02687385145332,-3.90366919985032,2.15825650455563,-0.737562075171722,0.195713504238117,-0.0229330793714219,-1.07113649296763,-0.0978870898783189,0.0678683240711644,-0.917033435059028,-0.0787562322374353,0.212478555593587,1.07915586151621,-0.142292849763355,-0.0878322753781471
93.17,-1.92398210812895,-1.28015825397162,0.42783374033783,2.96768677635957,-3.1395367852117,-0.959876173440184,-1.10251719003866,-0.392622086299003,-1.06459247701127,2.50171421725115,-3.78389699295706,2.16514830311361,-0.77413715560944,0.231205028141128,-0.0440236101806792,-1.02110365398294,-0.0370511199293904,0.10355190535862,-0.923382869888059,-0.0794439886048134,0.216069085809982,1.08204326171991,-0.145899412275508,-0.095117833140396
93.175,-1.90805545161815,-1.25977968667823,0.352053073507064,3.35550978753343,-3.17044257522127,-1.40971776616725,-1.10170170485435,-0.45369319987406,-1.06151268048901,2.99829529230009,-3.64820219827085,2.17013275048879,-0.800242275023596,0.257166775048509,-0.0680999684542174,-1.01893550877542,0.0222289143126849,0.154653933233399,-0.932778664206097,-0.0767653131157136,0.217645842992114,1.07693896638581,-0.153045510414721,-0.0828673774086464
93.18,-1.87058673936518,-1.17318737446655,0.253950938802014,3.702312592943,-3.17219579559524,-1.82265149487786,-1.0930934014627,-0.507142458570417,-1.04465320246157,3.52333635681978,-3.49645616652453,2.18429586349522,-0.822333368859958,0.272991196956834,-0.0915451323620048,-1.06847461381852,0.0657019670143118,0.153642938639442,-0.947147328159348,-0.074283340283817,0.222439602763613,1.08982538296269,-0.17051051799728,-0.0735672625687047
93.185,-1.84140719132488,-1.09641396240652,0.178553708624359,3.96063134539471,-3.100831535101,-2.2005808789497,-1.07599936379925,-0.51850243862536,-0.999390359877021,4.06881428210772,-3.34457312918532,2.22364924712148,-0.832458849482856,0.286298395809711,-0.119888338518194,-1.14677356079837,0.104837335850295,0.128557222167093,-0.962508745551226,-0.0695068868915815,0.233625351234307,1.10511540993258,-0.168374281229505,-0.068219141105303
93.19,-1.83608188869067,-1.03800791159195,0.145283541735241,4.17518305076941,-3.01680159320516,-2.50670329630819,-1.05854672149827,-0.518658234949006,-0.980007981913596,4.58240866305251,-3.17608283738566,2.27068020141847,-0.842905423419989,0.301641565372702,-0.144746365677341,-1.27645473651283,0.145719312862423,0.0740957496357258,-0.978092400788325,-0.0682942566086011,0.24683531585321,1.12686585345143,-0.158425792925012,-0.0656979551911828
93.195,-1.8293161958451,-0.992701783330548,0.122980213448135,4.3811116934857,-2.93363708141843,-2.76127144221579,-1.04277810128261,-0.504222593023978,-0.969689930235549,5.03617091953992,-3.00054033049246,2.30577502603011,-0.856365554148052,0.317527359841465,-0.17121244426473,-1.4612268819396,0.183704774160835,-0.00603504683745209,-0.993179599756969,-0.0701253436111064,0.258227031714506,1.15587903521126,-0.146454482571544,-0.0657767522243833
93.2,-1.79961320474088,-0.938828418716042,0.0952197973235728,4.56574860030107,-2.84675564928301,-2.97265405613302,-1.0310126561928,-0.474347929974583,-0.95286465787811,5.42477494896528,-2.8240374020076,2.32499853886487,-0.871585586654826,0.331648153332458,-0.198928566068544,-1.68320381815816,0.214622628297995,-0.100506882161677,-1.0064226973185,-0.0669953799549909,0.265497333394654,1.18670975795355,-0.130520552989935,-0.0683526402742836
93.205,-1.73555558704955,-0.875678040571111,0.0561112546706058,4.71034231897693,-2.7391646322922,-3.15535316230906,-1.02528777629573,-0.433097015673053,-0.920940714503536,5.74969370053066,-2.64760546130897,2.33421622709826,-0.885408811097853,0.345376847636443,-0.200551094805309,-1.90382842315085,0.24498381292429,-0.196650625248965,-1.0098396496094,-0.0586359341645088,0.270899521867249,1.21194396982762,-0.134558048557831,-0.0633057954371925
93.21,-1.64270594004856,-0.841481813865518,0.0148975975562501,4.79771138744375,-2.58014685979191,-3.32896602912373,-1.02294093500756,-0.404787384288978,-0.888098520721471,5.95062124830118,-2.46299718105436,2.32503688792629,-0.889869814697275,0.353601555414234,-0.200605255706427,-2.16370730365655,0.270631530685346,-0.305391790833115,-1.01693094313868,-0.0617186309154642,0.271216562417118,1.23490325548786,-0.14729434202828,-0.0616541641605143
93.215,-1.58327948822968,-0.854953565221639,0.000257336313288937,4.83347615432453,-2.40438907253037,-3.42910701743804,-1.02602126702764,-0.373276597251211,-0.835254145632546,6.02069225746573,-2.30148655782966,2.28932742368801,-0.901909139474688,0.370964717845835,-0.192039906948654,-2.4716523519419,0.297015512582082,-0.41413927882035,-1.02277677807123,-0.0645105492798875,0.264043877045752,1.25605027140107,-0.164256526232775,-0.0526556465655279
93.22,-1.50336755305805,-0.889052566984303,-0.0399296271324306,4.85720808056413,-2.20397437887702,-3.49996600901349,-1.03422472732187,-0.36210395107918,-0.790140293817947,6.0193163534949,-2.16524965611586,2.23514465073262,-0.91664238243577,0.383749424348073,-0.174384941794417,-2.77268201365128,0.325082947785803,-0.525525821538805,-1.02468815217121,-0.0640721998870618,0.257777929813008,1.27312822434724,-0.177936419149987,-0.043587874968473
93.225,-1.42794663131048,-0.923832647035187,-0.0573277336917189,4.83258782323387,-1.9789037162886,-3.55952692611882,-1.04626642376838,-0.364163353763772,-0.746615091896764,5.96570337898942,-2.02695351208522,2.14963035293304,-0.935201758124933,0.391971671651392,-0.15120499587321,-3.05503984076836,0.351758104751094,-0.621456072583158,-1.02372612150917,-0.062915509084446,0.25664849753417,1.28452879924663,-0.180168905103059,-0.0376136386808992
93.23,-1.38788510062959,-0.940297414606862,-0.0406022479003622,4.75597718217886,-1.7449410758788,-3.62528250943576,-1.05408157200815,-0.376812567581614,-0.707709444056529,5.88302224977668,-1.87974910584778,2.0337655200436,-0.958397936965628,0.405056706685613,-0.125388582817464,-3.32018236872199,0.372928143631307,-0.682618883494814,-1.02487500949695,-0.0667301520027161,0.255153170755521,1.29040157794952,-0.164108117897785,-0.025801419877257
93.235,-1.39019172709231,-0.936798008474596,-0.000838682308834517,4.62708335522243,-1.52094479611265,-3.70754075708015,-1.04615269952994,-0.404762633868502,-0.687466060724348,5.80002377062358,-1.73913546249989,1.90227518927865,-0.973105405285917,0.436313447046868,-0.0929756839325421,-3.52938796899912,0.387730434391221,-0.723078479843427,-1.02999918200285,-0.0657376490508375,0.258766222902164,1.29040157794952,-0.152205776718593,-0.0238176963473916
93.24,-1.39322606472604,-0.944611983458856,0.0312272305896279,4.42655869542555,-1.32344322292003,-3.8042761853818,-1.03900406424513,-0.426392529042533,-0.660122557955386,5.70779710923126,-1.57191117452536,1.71174087361426,-0.981945227168003,0.476618286748512,-0.0545054474463032,-3.65284943762379,0.380422256357547,-0.727069768105004,-1.17509754828751,-0.0836862569615674,0.34731245433792,1.71950992660075,-0.0799552135027045,0.686879661225998
93.245,-1.35619029541262,-0.981555434862218,0.0283921269864245,4.191604699859,-1.13556861062734,-3.90503325906801,-1.02884354056018,-0.438642080079592,-0.624644511277333,5.6346308331326,-1.43496171918243,1.53662423197613,-0.995594717396603,0.530841218415254,-0.00845605265981446,-3.7145035761527,0.362720535522873,-0.706458166535861,-1.1537743665258,-0.155997147740238,0.289804950084635,1.59807705047551,0.0906489631243169,0.593698326547666
93.25,-1.34939889543735,-0.989932732741868,0.0454075690148857,3.98446635000259,-0.955514275239283,-3.99056836721907,-1.02052782370662,-0.450859250347513,-0.602241815127439,5.56411458031977,-1.31521445573174,1.37683432786541,-0.994839771529172,0.597211182699658,0.0528372494394547,-3.71181467563536,0.33249522606164,-0.660099653025789,-1.05874413446694,-0.166252704197435,0.230651325900705,1.37163108275088,0.218269374645525,0.12600588297397
93.255,-1.35158151911667,-0.945134858548376,0.0499083706912604,3.76305873952091,-0.788933841530289,-4.05340370848411,-1.00726731611039,-0.459987252290815,-0.587154048977209,5.46090105571974,-1.18025682125379,1.19439528837179,-0.9889202089123,0.664039234229134,0.111453668850105,-3.65248711684525,0.275551685929561,-0.614138615580507,-1.05847236132041,-0.0676087235862614,0.332169168964125,1.65533303249765,0.124206424713416,0.110250066080358
93.26,-1.34153646220282,-0.860965896301007,0.0324070560341022,3.51380782967009,-0.633564220281631,-4.09448790530976,-0.987577193028198,-0.460969695936699,-0.570466012274786,5.30751441273801,-1.01647802126789,0.975665305435458,-1.01065850670632,0.714941712776723,0.133031349032816,-3.55907349772379,0.175533133651534,-0.611307897059527,-1.02440734828469,-0.199371440235435,0.331176278904269,1.73248142409592,-0.2624763382133,0.0124033376219208
93.265,-1.29881968084359,-0.763247134883501,-0.00638215090629499,3.23711413733732,-0.483203238675032,-4.11190305980662,-0.985996563051343,-0.444981360903567,-0.558012299490896,5.11857195794667,-0.87075105700332,0.800793134643634,-1.0274235429716,0.745018152425186,0.210794142099062,-3.50119710785226,0.115609969827716,-0.546815207716366,-1.06725161575453,-0.0447646820244892,0.255141847098463,1.51577528041435,-0.276918646109569,-0.209158500856225
93.27,-1.25174043806581,-0.680005352876657,-0.0777110753012596,2.94847568879811,-0.279094581618004,-4.09128625768223,-0.993558708943029,-0.416427708555613,-0.525178334621096,4.87322164037977,-0.72788282492007,0.627099552461091,-1.05342254745534,0.760897764766484,0.253956444685662,-3.44168712218816,0.0426232322348433,-0.595900799180877,-1.12273591438845,0.0182590269011042,0.250796719260438,1.37981450380348,-0.147124913265207,-0.152109312460082
93.275,-1.21261044615518,-0.608578427088724,-0.121307023353801,2.68496879659346,-0.0348391405286731,-4.0146897922671,-1.00712855117946,-0.401182662702577,-0.516158339129182,4.5880159061123,-0.593610170887533,0.458304614262712,-1.07028779646095,0.754727911319249,0.285778342588768,-3.32835718630608,-0.0443923834695334,-0.728092166423626,-1.1509741810016,-0.00246309894164077,0.281644667956711,1.25319588067863,-0.296917881939217,-0.108030172119726
93.28,-1.21657334103408,-0.556477753143718,-0.136426347037771,2.45988035318635,0.212766076774021,-3.89520318432694,-1.01417891757948,-0.392727906134312,-0.520033269809462,4.28385368456846,-0.456729901821328,0.300478960155063,-1.07443593263074,0.731834531673676,0.312369010218537,-3.1315113478544,-0.129722330619514,-0.874383218235127,-1.12550405468628,-0.00862076705501091,0.298092794780086,1.06091026584079,-0.640657569244948,-0.164155230606619
93.285,-1.33784148023811,-0.156904813366134,0.00753930266217248,1.93784334246688,0.415733047027388,-3.88485254309982,-1.01229015015934,-0.375120522618258,-0.560203847066539,3.97258960543266,-0.311465076619265,0.15519416884044,-1.07003875665162,0.697759064480823,0.330531547999174,-2.83579855086994,-0.197577278106057,-0.980914670980114,-1.039845417387,0.0618544070651416,0.292104712194534,0.858012723400483,-0.608883562985464,-0.0554259476989003
93.29,-1.69815468426432,0.529552313484438,0.42231540548342,0.760130032727958,0.493475792307208,-4.04388276089525,-1.00451488042812,-0.321034893634138,-0.680703467419242,3.66559622917443,-0.157954751836341,0.0264925083222939,-1.06071211629258,0.644044753895762,0.335679455961115,-2.40561343016345,-0.240199301570237,-1.03444004044787,-0.963936374792544,0.0455423648476549,0.250716688945382,0.984774783236065,-0.227607061303308,0.0396455941579956
93.295,-2.52468162690927,0.603128959336976,1.17963451105627,-1.44883127151732,0.291045263516827,-4.25125075596174,-0.966078994854868,-0.101543666959189,-0.792700200012247,3.47989532702332,-0.00188701338324783,-0.0219082484100625,-1.06488504555927,0.607727837365712,0.32508075095354,-2.06097621409131,-0.205491599282944,-1.06655487759451,-0.989499245630312,0.0690531846330649,0.267151165353348,1.29426250142388,-0.076948105719493,0.105831314387536
93.3,-2.49449921952294,0.687391328779034,1.42615830128461,-2.32718552115817,-0.548339060410723,-3.79126477870203,-0.953687338249792,-0.0361398442084736,-0.72425584567832,3.23162287605606,0.159369710104103,-0.0677945785957158,-1.05215540425419,0.586453299642952,0.333073976539151,-1.72748739000311,-0.129588061207466,-1.10912340170815,-1.06672945131148,0.0758125751191377,0.32444355561758,1.30698656996765,-0.230233978875614,0.142231077575764
93.305,-1.89188757232255,1.00657382204785,1.06506480628601,-2.82489748421754,-1.37468172384878,-3.03963567972347,-1.04175928169614,0.016930803846173,-0.528151187067125,2.69188923418882,0.343337907591694,-0.186846235874834,-1.02870336973341,0.583274909919398,0.35290297580192,-1.46514257162013,-0.0268335172025304,-1.15511413266736,-1.1313585413897,0.0734093671246591,0.371535309268952,1.16478962389836,-0.535934681571866,0.167580281711972
93.31,-1.26459158047946,1.05292141978649,0.633533097815494,-3.50561405318752,-1.67630742264347,-2.19051655088589,-1.17727063102218,0.124663321336265,-0.271660003796036,1.895996457147,0.515975073202507,-0.346575628181357,-1.00621330362635,0.59439024382017,0.377741229927585,-1.28928047404172,0.0788275913828428,-1.19384075008737,-1.13494556942263,0.0863538907506287,0.361788088771741,1.16449810901388,-0.766872453622545,0.202208514622844
93.315,-0.990757608170447,0.714311849098575,0.516189113493434,-4.29603847760449,-1.52355603746064,-1.40242089440601,-1.28054774194527,0.285717893513099,-0.0493090359863547,0.959751352209792,0.641711056151484,-0.499373502148356,-0.996647596776158,0.610814221435335,0.406224502482376,-1.16105402317098,0.158569542676998,-1.21543682940746,-1.11417217097174,0.0963239153604864,0.320339588256689,1.13614897322086,-0.795221637109107,0.236423013936025
93.32,-1.2547747285665,0.182987465803826,0.906874317836694,-4.70218105272434,-1.38677140631768,-0.808819523698038,-1.29717904884234,0.356557173716706,-0.0802405419026589,-0.0196579306931901,0.720775340212514,-0.657502118488284,-1.03694244454677,0.640061140143291,0.448009019714391,-1.01850181305558,0.20707689362939,-1.16890935751693,-1.07182270920999,0.092936136572897,0.283389291921231,1.11706160574786,-0.663016566893461,0.309548623925115
93.325,-1.2016917128217,-0.236698025208264,0.972678057683608,-4.47041263329207,-1.68856378833381,-0.495192127439059,-1.3221567843689,0.331977360386308,-0.0964972079383044,-0.991091374314159,0.838350567342144,-0.883786353131929,-1.09004258851782,0.660861839727501,0.487886894981487,-0.865247250381306,0.205639971842458,-1.12057917498041,-1.04989754504617,0.0776364254716956,0.264685289146077,1.09690099080421,-0.514985856062324,0.358474827446137
93.33,-0.949530358754376,-0.572833903811611,0.933667996021242,-4.06565810819086,-1.9216408117171,-0.24870940354149,-1.31084164721452,0.273257652244108,-0.00251789609431162,-1.92471230434659,0.945430943782536,-1.14046891678374,-1.16238791065497,0.66393782319392,0.539968374039173,-0.643366703033524,0.115506920099234,-1.07907970852043,-1.04618443927932,0.0569124193494905,0.258266333384426,1.06722096221946,-0.397325598653339,0.377716857430728
93.335,-0.756827968066417,-0.581915381497003,0.941269649826792,-3.61859189704843,-2.0108980297281,-0.0048581885215912,-1.26797148204603,0.172601961296713,0.107010937354317,-2.77135204699393,1.02153302746133,-1.40585270344875,-1.24141682281505,0.63233020643169,0.594712872603425,-0.376632269016969,-0.0518936985381316,-1.04862714544571,-1.05468066447211,0.0367576726755874,0.254550978724201,1.04262005803245,-0.332953849999101,0.37699495574451
93.34,-0.716873880836901,-0.387969933755164,0.982187672818536,-3.17315713125074,-2.02251434012652,0.259184301660246,-1.21506908690557,0.0475189868408366,0.140297249254247,-3.46051494131324,1.06444480219578,-1.63610896885995,-1.30131449069739,0.54654331893432,0.630591695706274,-0.0955206146883976,-0.237735570379504,-1.03375877450807,-1.07889679198287,0.0189113444062239,0.243906472808532,1.09700166645989,-0.318854905382117,0.382030282579156
93.345,-0.829626879624716,-0.274246508835196,0.977995090466045,-2.73397322349646,-2.05394622729672,0.524991184727724,-1.18488380800322,-0.0238934997458243,0.0916988661102665,-3.9004146601507,1.09902212178338,-1.75328750681673,-1.33720188850989,0.40155477419594,0.677355526009715,0.626555528970657,-0.36589212484204,-1.0701016764454,-1.10026338845919,-0.00052663558914544,0.236635275307621,1.12000302969766,-0.310995617392358,0.382177859544754
93.35,-1.08083033421957,-0.426989763406742,0.896531956376362,-2.28944519012194,-1.93207571107724,0.607903107684604,-1.15268647220958,0.0820086735871894,0.0557759019556198,-4.04110069481408,1.1267307893001,-1.72485124800028,-1.35397856296474,0.23203034828723,0.638115351105128,1.30063578723479,-0.511978433602118,-1.16374474987874,-1.10784533522398,-0.00969337701137002,0.221833902325275,1.11822387302517,-0.313609364955179,0.38076608985355
93.355,-0.770605205355781,-0.171772991966755,1.0738683498844,-1.55539417238165,-1.82775860350069,0.483367884900579,-1.21734336535207,0.359954758345402,0.0171366073036152,-3.92756506800181,1.1524524249021,-1.60149546221262,-1.33055223311744,0.0661673557319068,0.54891270450351,1.88265142866556,-0.549667159196557,-1.27911926432095,-1.10201922095794,-0.00540395364192627,0.206063765574938,1.14583091250854,-0.344622756627292,0.368773377970982
93.36,-0.266702051734842,0.499065792978206,1.16244157848846,-0.915344379312,-1.60888822221439,0.138991318452636,-1.37313320037824,0.838281197035017,0.152785404528176,-3.43803916483311,1.02697008421572,-1.34639539817429,-1.28893438541625,-0.0828946535885654,0.414303553781515,2.28355153838858,-0.470460480194358,-1.3825371151904,-1.08828005046827,0.00964038468613855,0.19396970293176,1.21193216248966,-0.391576408066432,0.395591629589078
93.365,0.105966908158137,1.14137918837142,1.12034962668117,-0.548769810077345,-1.24030229628037,-0.32228053950665,-1.56698238512719,1.32991729078195,0.481981197563442,-2.56092314040105,0.696195641041477,-0.970959921726225,-1.26175347291184,-0.204537878528714,0.218186917591881,2.37568111801438,-0.276211693552594,-1.4374842773009,-1.07362089809616,0.0314656461742726,0.1875776388188,1.26538303947926,-0.397515380984059,0.649978268052762
93.37,0.00712759871131064,1.09433572421925,1.01790175420016,-0.526651029551415,-0.776223536531894,-0.690629756633152,-1.6031367523571,1.07988013346556,0.617209570611201,-1.72585092061221,0.370537942909597,-0.666740443301921,-1.28887002438661,-0.301381598391475,0.0113088567590852,2.38391727488975,0.0367643082663024,-1.38600794522654,-1.08383277324711,0.0640314339989075,0.188740586527789,1.29949203673525,-0.369684677669933,0.42156892104292
93.375,-0.49319729895826,0.26867295314396,0.942482644077437,-0.630517729673334,-0.455547664725204,-0.772311330608754,-1.45247871469663,0.160050236190188,0.285505480867118,-1.25821780134055,0.454062792457561,-0.639461754029615,-1.35447332581042,-0.289544033289979,-0.24750273372427,2.28659977387505,0.401721162340744,-1.23447412443185,-1.11903169754103,0.0927820117514709,0.179185990131547,1.32049531531216,-0.332622060872064,0.378068640956738
93.38,-0.710466811708613,-0.190181676872902,0.842876839276805,-0.48961205300506,-0.350153339388791,-0.724008978133575,-1.30605541011655,-0.578912010684356,-0.0919540984478866,-0.301288226108891,0.685015490876268,-0.713308961641698,-1.43637722883251,-0.10457770161424,-0.462646190106489,2.23703314660197,0.748742035331572,-0.91811755231145,-1.16215343630705,0.106406790545463,0.159799583520029,1.32332016000879,-0.30101560070366,0.399415953528953
93.385,-0.758004064661378,-0.071571946003861,0.752284718275691,-0.356640457550335,-0.312262154824021,-0.672267135738644,-1.22609320063662,-0.778785292243294,-0.363052867644204,0.982846082031635,0.881385154621969,-0.77896627517046,-1.47309356778087,0.15071613353899,-0.597534732727444,2.21901621598124,1.01929820291027,-0.441552713750304,-1.20003789435458,0.0953141433974224,0.126987792209925,1.29513826577131,-0.28126013983597,0.415794459034514
93.39,-0.751057912014412,0.167290155139958,0.678468440139005,-0.325781766437168,-0.284683502208882,-0.623121967166803,-1.17980366374278,-0.543389983036447,-0.470807585752013,2.24225436143495,0.96493649184802,-0.769070664676808,-1.43858056645234,0.37178708239933,-0.659369243731197,2.11562949110608,1.17105905280115,0.0918066973543923,-1.22228259138667,0.055700410617821,0.0775740660665917,1.22859118573604,-0.276401066967127,0.42625853383918
93.395,-0.740326215378153,0.2599812279346,0.64651880484324,-0.39958866506497,-0.254566715403182,-0.58096306326532,-1.10364204089612,-0.137222981475646,-0.406784803601428,3.09545141673083,0.93745447737929,-0.647515081043227,-1.35202292149959,0.506295344478116,-0.679756394536842,1.70931338235573,1.15481838479535,0.48948991396206,-1.20425829972983,0.000515312129232154,0.0274965573104564,1.16122628109753,-0.307569931263465,0.415198618997341
93.4,-0.716951932173797,0.200373853233589,0.692143208673776,-0.481685853351046,-0.242947693201779,-0.557146227741379,-0.97498218584063,0.184440108600616,-0.232311552541727,3.28012408999851,0.947601309062478,-0.431387234508155,-1.17514702437007,0.618706229645798,-0.717522941586356,1.1076369639502,0.949492440853324,0.495619055543349,-1.16875638954673,-0.0386245088578457,-0.00893267221986667,1.10929654690797,-0.29575072670718,0.600078683784689
93.405,-0.651744964151748,0.117352220041797,0.747219304212612,-0.471571467815545,-0.255084958311712,-0.509608526900556,-0.869845242241964,0.358331982882088,-0.128715712488637,2.9423254865623,0.949251648388885,-0.2473958939359,-0.988724346610494,0.671624491897484,-0.767322540538791,0.608149218856079,0.718697600708055,0.259259629949245,-1.11729958464542,-0.0637332193441699,-0.0382629757948449,1.07920098056732,-0.236456788557372,0.449376442833512
93.41,-0.599851891044422,0.0661400777558967,0.791440697449124,-0.43877444086391,-0.24730000874323,-0.447831776375118,-0.809718395437408,0.536403945526275,-0.0586196236862553,2.23803788329771,0.884615540000873,-0.21673220802306,-0.813241540465338,0.606122694150539,-0.805070315172945,0.112270402954968,0.491022334113212,-0.105459475397693,-1.06282809886648,-0.0694482453290238,-0.0623803869179565,1.08044006710446,-0.140262311110444,0.236055094425869
93.415,-0.568352231628223,0.0275924731132265,0.833179249938913,-0.399765219134407,-0.227624903540171,-0.376931626650876,-0.804531116718386,0.71984952273698,0.0135008612110864,1.21024035206305,0.78689160148875,-0.36115070889225,-0.66970669313461,0.411955390073155,-0.822239073767247,-0.458719666631642,0.287685007190366,-0.495093749962071,-1.01350951971,-0.0549662257567498,-0.0828762712236945,1.11515038663763,-0.0254756295126545,0.140066268076696
93.42,-0.54368717676382,0.0359321746276414,0.8654755360509,-0.352058406781632,-0.196880487059864,-0.308309126963826,-0.86887553305435,0.834786618115821,0.0724352098573544,-0.00402717095735872,0.697374861611179,-0.62024984174345,-0.580782536212662,0.132536474870782,-0.816738323481869,-1.14860799427517,0.123970929337306,-0.826923125816069,-0.969084493400425,-0.0280873642065649,-0.102012269608587,1.17332757584801,0.0850857220011705,0.056507331897002
93.425,-0.520350154075943,0.0934321584361844,0.879325973640744,-0.296125850109537,-0.155207890334969,-0.249036082618748,-1.00911151086544,0.776005934572023,0.0612617454205024,-1.19243787204865,0.645990171419109,-0.879300317802501,-0.573459253934386,-0.109318277753568,-0.784628189511356,-1.93348116777702,0.00854840490249903,-1.06379026649043,-0.934966722786935,-0.00803998699624702,-0.121821087750421,1.22739465545247,0.19221866364592,-0.00757217980718761
93.43,-0.513679210606897,0.130966501480826,0.869377391738352,-0.244708269255747,-0.104779102850791,-0.196629708395344,-1.12421211830682,0.548658554161561,-0.0645190537445091,-2.05236573293573,0.625562082725927,-1.00576032805409,-0.625737809122495,-0.225136911929143,-0.724878032289193,-2.48471436425545,-0.11421645245896,-1.29466128684907,-0.901760209172514,0.0111886765528039,-0.130013505266039,1.24958418050775,0.314858009711901,-0.0630094762660553
93.435,-0.55855767819939,0.141840869162061,0.817480340434588,-0.18344683459621,-0.060851532996939,-0.161338505806461,-1.15954553907837,0.302883487994746,-0.206120115261051,-2.44964308134303,0.622121334075928,-1.04190957967571,-0.730237127384604,-0.222437752682281,-0.621721139006183,-2.75584709168829,-0.219108073452983,-1.39048445157991,-0.881774175919877,0.0318805530991818,-0.128730377639341,1.23245557772247,0.442261157125558,-0.0874681026937413
93.44,-0.610737831387332,0.134854149685035,0.781571554140148,-0.13050162261056,-0.045444261915956,-0.134819225069271,-1.15352419762478,0.0579274625726996,-0.306743462085879,-2.42114072194368,0.625143538366267,-1.00432164183805,-0.862816843808591,-0.128061462641389,-0.481677254330783,-2.82886773888781,-0.318469357871348,-1.33632114317652,-0.875136115075204,0.049279385285027,-0.118935116614818,1.18261460929722,0.54223538911799,-0.066267559690141
93.445,-0.629743007013435,0.144493101357495,0.765044503307436,-0.0873047918677558,-0.0506150149111343,-0.126596133275318,-1.10908813371868,-0.158235773364787,-0.336458219929788,-1.99670852299778,0.614364885517153,-0.892490193379861,-0.998434483681676,0.00145142743604878,-0.310894864457021,-2.7442012394024,-0.405361259200168,-1.15516536629043,-0.875630257863246,0.0546128443550002,-0.104083743458157,1.11611071637037,0.588212519822702,-0.00282889312379803
93.45,-0.613167095141647,0.178400330216187,0.767062746394343,-0.0587421677995035,-0.058525670076971,-0.130010277032852,-1.02692899044822,-0.308303536352612,-0.292702812169185,-1.29119936234534,0.582541500979938,-0.723380347729089,-1.11710203745391,0.0908401971101759,-0.11290087413575,-2.47019895729557,-0.447800794447501,-0.906947771028591,-0.87869878649549,0.035473116622251,-0.0942501834027204,1.04203242948564,0.61496298163305,0.0558163995485906
93.455,-0.587812215070958,0.213586126201362,0.783222223600764,-0.0476846087570627,-0.0538285440415061,-0.131554773889894,-0.930253885837536,-0.352473114356678,-0.216141410088882,-0.566025422270203,0.5673705215863,-0.561556271462064,-1.16960250355872,0.0756941023697169,0.0699448999244166,-2.17404902627678,-0.4449348225619,-0.741676974205593,-0.887013389903605,0.0145709664491369,-0.0883706945599398,0.948871231064016,0.63249300873077,0.095644092767287
93.46,-0.56654254504382,0.196328432570188,0.798100343834372,-0.0305297443911222,-0.0519224486466486,-0.143944399768691,-0.858562125091086,-0.247651704579271,-0.150490625250299,0.518211697381219,0.556741475020588,-0.388910969642014,-1.17455037597797,-0.0357262991620534,0.25913207855025,-1.91937907301,-0.425757740026211,-0.679519373115192,-0.892723033514552,-0.00462941269797311,-0.0819768014630757,0.865950403803743,0.662016199619769,0.105108138408088
93.465,-0.567624950341642,0.191106431392876,0.795726297184288,0.00057536559647256,-0.0473185287124078,-0.143309767203661,-0.864374582463925,-0.0896511383135523,-0.153938967032552,1.36115598824767,0.542805556031874,-0.27020762629771,-1.12647465908521,-0.15866284321367,0.402169052590987,-1.78750042380992,-0.397503808158207,-0.681374886323493,-0.903169688452047,-0.0166930802736515,-0.0714213448400242,0.80764656700562,0.694832012467677,0.0759954611157345
93.47,-0.584924999381424,0.199480186623032,0.787631887227338,0.0229679374361524,-0.039616676899422,-0.134363731703768,-0.912896931607311,0.0943200975772468,-0.19612296956426,1.890838436913,0.514210478269357,-0.188073220635992,-1.05679578700116,-0.237475317930146,0.472740197611595,-1.78178183583964,-0.356689679586861,-0.720509500495995,-0.921811391118433,-0.0182707263704687,-0.055979163408845,0.785875705915385,0.709772582890995,0.0185407788229432
93.475,-0.598901072754995,0.204365231300113,0.777817150185727,0.0422181946806895,-0.0340760986356467,-0.121365618197065,-0.961442496749668,0.270880276155955,-0.234677265422836,2.12684794487427,0.471884012297259,-0.138620307500821,-1.00545737642319,-0.249696714521983,0.482417143388411,-1.86324268309928,-0.301117326860867,-0.776030626593385,-0.943673877448748,-0.0109122144190824,-0.039519424608432,0.804215762562062,0.684863224486779,-0.0426289832570953
93.48,-0.597313515398409,0.1995696642308,0.771154761081403,0.0620941237711604,-0.0341705785747319,-0.109153333074458,-0.983781436082497,0.413579864461509,-0.239257673903083,2.11485243954515,0.428309341402008,-0.137550479313138,-0.995504118961782,-0.199880938673166,0.492286544929096,-2.00010890072816,-0.242601995211313,-0.824628108496471,-0.962760952317976,-0.00692108553807283,-0.0333655178775029,0.829845403591699,0.641489941427174,-0.109660410602267
93.485,-0.58537788779129,0.203800229266822,0.77693315508974,0.0708387582140589,-0.0380570788212299,-0.103323582704711,-1.00187839638968,0.507641413963362,-0.232521767413088,1.75344745494413,0.40298176355328,-0.182360812095121,-0.991529267689259,-0.0869957272597608,0.495726228737555,-2.08441179388189,-0.0924356579403145,-0.823821130203512,-0.984037280698725,-0.00369088978370716,-0.0263717443439671,0.846774611545879,0.616367260972797,-0.144903428997548
93.49,-0.572209635956738,0.238486756373364,0.781016947773102,0.0453544686870096,-0.033411881017112,-0.105041906957856,-1.01306644798857,0.566229887012969,-0.186029289904034,1.26473739248739,0.394444163115719,-0.250162285512592,-1.00790287143446,-0.00203086117635843,0.508561928952774,-2.00472263816869,0.0395707210621141,-0.767639175837376,-1.01223336369716,-0.00517838999115025,-0.0210630076118801,0.864880388267003,0.594065126362616,-0.16279416514621
93.495,-0.566696899244339,0.244963243726983,0.790072833230691,0.0200569410794017,-0.0313523807818243,-0.110639331880662,-1.00897424315534,0.592156094431742,-0.148290323405842,0.778767872929943,0.379400895505872,-0.330364934333913,-1.04492601762694,0.0473062755879686,0.537973514822083,-1.78865366466888,0.159964008243014,-0.674580864945579,-1.03979230840022,-0.00376420592320021,-0.0192173837981835,0.884273730633741,0.582879978343766,-0.171013330413067
93.5,-0.567703752121327,0.241659884117756,0.78974807158613,0.00113972520367539,-0.0298606131595958,-0.115618278403194,-0.993166117574072,0.574728274348181,-0.146801357847984,0.357769418038257,0.349522971114644,-0.403408237567935,-1.08345593313519,0.0708544638127518,0.575226452375059,-1.46451897628284,0.275687775827464,-0.562217749672896,-1.05895539218701,0.00942677039878115,-0.0216391301282317,0.900397923401773,0.603128925481007,-0.168765700218314
93.505,-0.568123036540066,0.237813012136264,0.782577372489311,-0.0116220855062187,-0.0264642502183977,-0.116403105542767,-0.972497757372022,0.506793764758167,-0.186014180681173,0.0198414208556818,0.305269473976522,-0.453807445195799,-1.08380613231147,0.0917421627212498,0.593297724749803,-1.04586500845172,0.381673660384936,-0.442774323748924,-1.09780215042234,0.0140404407126713,-0.0232627921243113,0.908350674342673,0.668739157118708,-0.127013733528405
93.51,-0.559109521516901,0.230240485172954,0.786446992445497,-0.0228743762763773,-0.0199302001801695,-0.111470402700435,-0.947780587851629,0.410568207203312,-0.212150964460732,-0.287146076920536,0.258664092965676,-0.495347009416063,-1.06242275073404,0.103353571777936,0.605520701473725,-0.639492085258108,0.460916369255385,-0.376738745415,-1.12425879388297,0.00402423203678427,-0.00846397060665415,0.975605497445099,0.754210043824347,-0.113289831831326
93.515,-0.575598311503524,0.231243700314822,0.777566814814443,-0.0218675471314889,-0.0209370293250579,-0.108449915265769,-0.930563192253943,0.343721497076213,-0.207302714837974,-0.511243026876143,0.230113052447609,-0.532066356582238,-1.02777479832452,0.110016568754791,0.600149439930152,-0.302172187280283,0.490330384026552,-0.353046061698443,-1.14640366198031,-0.0164589064257621,-3.0934059303185e-05,1.06192780131297,0.777593722197081,-0.120633916437934
93.52,-0.579658538784793,0.233475535988226,0.775731008368717,-0.0331028717804425,-0.0167039815201937,-0.105393930776805,-0.928322896793745,0.289373051472612,-0.212292426285859,-0.599193078535782,0.190132999380757,-0.545001534565579,-0.997436636891672,0.105100659941687,0.575518437464828,-0.0669870282192615,0.492746193526404,-0.358886132963302,-1.15628044328821,-0.0386683137324927,0.00347175988608168,1.15112928057461,0.758069673780034,-0.166647927420095
93.525,-0.577804441234925,0.233746764808153,0.773589276128972,-0.0429806649537424,-0.0156437404668621,-0.104354701936245,-0.937829733476331,0.239814961548114,-0.225757353536556,-0.556626583516717,0.14909784028243,-0.530900693810428,-0.971677220666519,0.0889800501105198,0.514384354442238,0.0870999861912965,0.479842245930821,-0.375000205508791,-1.14952592233999,-0.0538838124546478,0.000639135266639732,1.2286739417207,0.725069440274913,-0.239846315101908
93.53,-0.578923875257477,0.234743114349069,0.770596004453525,-0.0501632070646372,-0.0175853534462749,-0.10574642751942,-0.950211320575764,0.194467496075181,-0.239878316007545,-0.418891919903697,0.116123242548162,-0.499127485633072,-0.955848513838993,0.0666575862591615,0.407214344756162,0.197124522922366,0.459941459119137,-0.387489162420049,-1.12968891490823,-0.0555833319310041,-0.0141376962976872,1.27806521117363,0.700451552867889,-0.294991036125833
93.535,-0.582643510163603,0.231176169147447,0.769973411316851,-0.0542003630052331,-0.0206230516060706,-0.10980324240266,-0.957642598024041,0.157918377149032,-0.24495336471332,-0.2314110701482,0.0939101054989657,-0.464949603942254,-0.982084563387806,0.0462112614857513,0.282266807357194,0.278241498939389,0.442704118411538,-0.40472652786249,-1.10394459717485,-0.0506219474211041,-0.00813118644621098,1.29221918481421,0.700451552867889,-0.346552105694092
93.54,-0.576801542414297,0.20840909329832,0.776630330703434,-0.0514146397162242,-0.0237367682437067,-0.116784616377381,-0.971873351889275,0.133744165671217,-0.227013235473543,-0.00929802001743198,0.0795802245513131,-0.432195593914625,-0.973409929689307,0.024280087579867,0.110753295670834,0.310222158323125,0.46496006007918,-0.397714222433676,-1.082616010274,-0.0273436693919465,0.00223039840661073,1.29940323469825,0.696893826975639,-0.366623639170206
93.545,-0.573827284298387,0.204383450995994,0.780116986748044,-0.0350865645051341,-0.0278187886023822,-0.120866639847862,-0.975357276901945,0.131950997660747,-0.21462124283873,0.240015124465267,0.0455839816660975,-0.399586939746858,-0.976718977906054,0.0162654825687854,-0.0214190068528643,0.220534139805026,0.49471532480539,-0.408486696547458,-1.05253460288489,-0.00296626579099914,0.00394907807995639,1.31243892565887,0.70039567741404,-0.356424794359153
93.55,-0.570644525473485,0.205296703638238,0.786249448890412,-0.0327194221317768,-0.0292840369567388,-0.111850332901055,-0.973889988130921,0.147846020255357,-0.207534711800807,0.446574681083494,0.0254064232436026,-0.369218572387031,-0.988373340417123,0.0172151249836994,-0.124235197326137,0.0745954632571176,0.504966279472278,-0.414004904853073,-1.02307922958994,0.0139760933204365,0.00350683575198488,1.32709863761435,0.717846330199517,-0.337628810200487
93.555,-0.569820192919895,0.191542371966953,0.791472880963387,-0.0204405429537243,-0.0277904374392376,-0.106177953058635,-0.976806188806027,0.170185959919959,-0.20323989057274,0.576165363795432,0.0113415493712005,-0.34592889665003,-1.00458676508852,0.0329891507818178,-0.197116582886466,-0.087745640779769,0.479593782027831,-0.432381079678386,-1.00120883764335,0.0258590294099317,0.00462514058944448,1.33751226916274,0.733140281587704,-0.326633724545766
93.56,-0.569002728318427,0.173375476972149,0.795222393868579,-0.00156882274672322,-0.0212654910454773,-0.0986455009741764,-0.9835398528723,0.192747811440224,-0.201368984183697,0.636692612612764,-0.0022832075582515,-0.331127758737466,-1.02245627160104,0.0668824884738436,-0.238412713429488,-0.248041458629201,0.418306557257662,-0.482675626885023,-0.985596664437732,0.0444640100772778,0.00275613039907807,1.34035460700757,0.706611825852205,-0.327581162789977
93.565,-0.566448805895212,0.162507309109336,0.796693772308822,0.0178393998026798,-0.00869435826399298,-0.0821485116614204,-0.983997406802002,0.214794688797271,-0.205621404891944,0.640557688984625,-0.0148447882672727,-0.327262658794041,-1.03916218389694,0.0915873626772825,-0.24838186523371,-0.399712375072636,0.360343150900489,-0.523250030188029,-0.975162057684254,0.0633850397991425,0.000353548147875271,1.32754037160328,0.667411177621159,-0.333176964857101
93.57,-0.570276763736559,0.15728730356215,0.789015222106753,0.0381419403277416,-0.00666410498533878,-0.0648913464112281,-0.98625673370299,0.222020254077691,-0.196032441056273,0.577083230812545,-0.0291170184516481,-0.333786180775349,-1.04301707993851,0.113217459665639,-0.242216391081625,-0.523422607598558,0.289963336972831,-0.557610345597599,-0.963193304670878,0.0790196689023831,0.000417672715612179,1.31692589884923,0.627249120052703,-0.335674761782233
93.575,-0.566989232518761,0.161638533680778,0.79471182011106,0.0639485051597906,-0.0100148802852349,-0.0493365556143565,-0.983939412471256,0.222960257247542,-0.188707359047598,0.482966544780206,-0.0441712202948422,-0.340931143771348,-1.02787622011292,0.1143456073842,-0.199030080662673,-0.681575982995979,0.222580286801094,-0.585801668562192,-0.951263458313568,0.0928194286641102,-0.00584139547669194,1.3035481037707,0.577949405809281,-0.33097616566945
93.58,-0.561578252514713,0.1747719567303,0.797100756871908,0.084749981109457,-0.00372683134831777,-0.0341552779987234,-0.979385704451368,0.228245242196479,-0.176627556003304,0.386213465798882,-0.0526809019302352,-0.346331045193239,-1.01808705777522,0.106500579874783,-0.155361563969372,-0.858532017508526,0.162945378859155,-0.603721502877221,-0.94240078886364,0.102163360907162,-0.0157305736104876,1.29008429912402,0.527501258792067,-0.316882372495414
93.585,-0.558459779691669,0.189626585844447,0.795117733402287,0.0975724242401856,0.00259401978868442,-0.0201572586947746,-0.97569898125133,0.239865293187149,-0.165446189072698,0.302829622690568,-0.0534113429382261,-0.351913568233272,-1.02288454486513,0.106242457568632,-0.135904812208029,-1.02630864764625,0.113470931000028,-0.607470852121789,-0.938854442309166,0.102586937119726,-0.0177691710501053,1.28519109251991,0.496185743048053,-0.294324815074853
93.59,-0.560480960286193,0.200960351690806,0.791448387365239,0.105805663200827,0.00357786768943195,-0.00961106931420409,-0.973828343442866,0.253712218409825,-0.165993619355367,0.238529324629575,-0.0505044740972579,-0.360535382187889,-1.00789482225868,0.122225671559366,-0.112202807395858,-1.18380542995791,0.0809872115439947,-0.594674200438961,-0.937699326482732,0.105668484318526,-0.0179141046574216,1.28127984528687,0.493252283770129,-0.275746271452193
93.595,-0.56928751565603,0.206882765400134,0.789673355297763,0.118751493133185,0.00457370029398639,-0.0066235699822533,-0.960258248167748,0.26178467125835,-0.167350013969405,0.192696072315702,-0.0584754845390334,-0.366513643057449,-0.992157637759098,0.123864729731811,-0.0890243140807755,-1.32441830939402,0.0643697241389644,-0.595152413415667,-0.94799764253357,0.10028426861606,-0.0147856759283702,1.29822051403656,0.49695215950494,-0.255895652881431
93.6,-0.571588182771525,0.214876932227925,0.780823032276061,0.118770703673363,0.0106581078359611,-0.0116882439240315,-0.949868499450478,0.263663166872704,-0.166518680638891,0.151191167369748,-0.0604624779577289,-0.367345213890076,-0.985699799170194,0.122407777604773,-0.0663505797550692,-1.43403668832563,0.0571920858286118,-0.593147056151746,-0.958037162807644,0.0962695312516421,-0.0137986018192501,1.32184153862563,0.507584387779595,-0.235770162569349
93.605,-0.570159396922121,0.216540832857433,0.780126513597762,0.126784909017687,0.00629539988097473,-0.017536134554595,-0.938666963706959,0.255247155415167,-0.164384000667432,0.134798204828349,-0.0568238436118475,-0.36800889118849,-0.983776024544373,0.122410797539131,-0.0388076133413937,-1.5367986494252,0.0504435891817124,-0.599341355037477,-0.967321019043797,0.0874351680341607,-0.0158053301628039,1.3487262255122,0.516386015466707,-0.22255156477072
93.61,-0.563935298995862,0.216597747024557,0.782046916865184,0.129812156446953,0.00335348397493362,-0.0194700330685472,-0.93356162163727,0.236212546655395,-0.162522401232302,0.156688621449804,-0.0579428899662707,-0.367673481421876,-0.975146922740623,0.123220835304521,-0.0112645220969274,-1.65315118545359,0.049186343730164,-0.609174637478389,-0.977968983863132,0.0708795472715981,-0.0187868759492854,1.38072729838574,0.52042487310601,-0.219512381204052
93.615,-0.560729241331361,0.218742900052913,0.783416243621497,0.137946780656958,0.000344675127584242,-0.0222209920554468,-0.936771614157672,0.213534036520327,-0.157641804385815,0.219648575791173,-0.0656927078962326,-0.364225910900656,-0.953724411027452,0.123144864000064,0.010575042112698,-1.78784239687719,0.0652618394883146,-0.608486285946108,-0.989235980276632,0.0629830258709038,-0.0182159965942629,1.42313753761638,0.536581121874371,-0.216483078401863
93.62,-0.565378119679617,0.226069447202962,0.782768546170657,0.158917347162097,-0.00692787398916534,-0.0308469332607823,-0.939189632935959,0.20392588568818,-0.139963766943317,0.311270147672162,-0.0654839247961271,-0.356071567601552,-0.96190812616691,0.135939765643515,0.0589795459723533,-1.89297954827181,0.0887390618489178,-0.594195797898272,-0.992784474542374,0.0480016509243124,-0.0246726013522003,1.47108098089702,0.547864944944359,-0.222518169207772
93.625,-0.560350257572088,0.24184411864978,0.779793841768646,0.157893901548133,-0.00999819210652294,-0.0369875710558754,-0.940316915587803,0.209340894124062,-0.131187454418513,0.428236825917391,-0.059381317114513,-0.3479347573594,-0.967516892048828,0.150110808824228,0.0926900463935315,-1.9631990251705,0.0898275458658399,-0.566081122896469,-0.996588838410454,0.0351789303609685,-0.0194901781820894,1.51801075925171,0.555817315965208,-0.22941684698481
93.63,-0.560301678072715,0.234821941844684,0.784262121858315,0.15687501540973,-0.00909525221576781,-0.0450807370720283,-0.946176700382922,0.225390450409889,-0.128985739332385,0.537438911835659,-0.0455517482660875,-0.342306134489656,-0.96644751024936,0.154748195188878,0.129136979967106,-1.97314571150021,0.105596903360579,-0.550237969429207,-1.00320379709827,0.0236506790392815,-0.015822126613999,1.55943758341441,0.558734953403473,-0.23714610041401
93.635,-0.561981761188374,0.236952628339633,0.781718051951959,0.152708218659859,-0.00807646147853348,-0.0540180650401521,-0.947063483018313,0.244818205715947,-0.130336708380004,0.626171829863394,-0.0341777061384042,-0.338514787456243,-0.969868863762674,0.156319013169964,0.165835636279229,-1.93921233981792,0.122766506600553,-0.540025934679862,-1.00702970783649,0.0160013948607093,-0.0173092326104605,1.59161105182395,0.549109444252667,-0.241706976789507
93.64,-0.565293245257397,0.238271320325239,0.779141690992795,0.151109893953581,-0.0110926165728368,-0.0602308712600733,-0.945956817853869,0.262111037084709,-0.131738136381535,0.682431394008506,-0.0268419334900517,-0.338122807289186,-0.979960074058781,0.158561942805062,0.198392308970496,-1.88249574389529,0.139682390490096,-0.52545094284771,-1.00289953544482,0.0137461533127405,-0.0219121591776298,1.61206232251238,0.524092667892038,-0.239900845314683
93.645,-0.567144599559007,0.23576433712516,0.780518933454826,0.148831063487719,-0.0138749122539874,-0.0635484308006636,-0.946455144468395,0.274322500069672,-0.130071326857023,0.699741242622346,-0.0224756155327766,-0.343672484228346,-0.990185608530774,0.160614244324605,0.22499654233648,-1.81776478275692,0.166978432398828,-0.499610822870367,-0.995929998451237,0.012145176628038,-0.0267844529706412,1.62007753446294,0.497041156473324,-0.234891313404786
93.65,-0.564353408540166,0.233538082082719,0.785626032002078,0.141813377098596,-0.0109678102722605,-0.0650909573803763,-0.946644945374836,0.281923218070496,-0.122976826127329,0.678177618845712,-0.0202356894363656,-0.358043989982551,-0.998742107583935,0.163688124215017,0.252762580956139,-1.75789109727391,0.195882988887864,-0.458318566937332,-0.983431063068859,0.0255975987811668,-0.0231565869106852,1.63444582845195,0.473121788662501,-0.227684501564956
93.655,-0.559482557467953,0.242296840656505,0.787716460888862,0.140803286915274,-0.00894764222574158,-0.0640808733571168,-0.947167105284483,0.30139670114872,-0.113845301562552,0.631278715200327,-0.0132507375357644,-0.371016026125241,-1.00380584311212,0.160502377903376,0.258491869594085,-1.72787835832639,0.217290802825534,-0.425512029790455,-0.97623762105544,0.0340898477370083,-0.0193590416169352,1.63511406087521,0.454087349216211,-0.217230912598696
93.66,-0.558954006375974,0.255691393267011,0.78371182621402,0.122621366350943,-0.0106774451614326,-0.0722017069299098,-0.949187255655696,0.311939725574533,-0.12072723670841,0.578200382653869,-0.0111615756922929,-0.385879016559339,-1.01314494385385,0.156812604363533,0.262820979749208,-1.70006788191193,0.24946366824249,-0.38469159893627,-0.973906633863048,0.0384820970376884,-0.0174281848712042,1.63419537401954,0.433173987820065,-0.208579827292368
93.665,-0.561179484700897,0.249906978590853,0.778238652494061,0.106917605315383,-0.0139953377123664,-0.0797388869580781,-0.94966716149974,0.314900485022542,-0.137064449869592,0.512993425836748,-0.0128697460009655,-0.3978456666717,-1.02209022615266,0.155251712656032,0.264619779268539,-1.65214452160808,0.277299828292975,-0.345695091520279,-0.971644383030563,0.0433041552477265,-0.0158048934028921,1.63576004632602,0.413554991450148,-0.202554229770777
93.67,-0.566681641346017,0.23766068831231,0.774216439219073,0.097841141090366,-0.012967909089065,-0.0822034424907078,-0.948921433490146,0.308200422509567,-0.153512710633417,0.440613716539941,-0.0165798075021346,-0.40855335851415,-1.02247965766835,0.154740733507804,0.261173032858279,-1.56669610004454,0.288664584603909,-0.320332396093386,-0.961081817908145,0.0567966569600042,-0.00877487828189973,1.63984656328495,0.407776015627832,-0.196835229512134
93.675,-0.573206019021094,0.228620488117356,0.775228017949039,0.0965831980935743,-0.0102034910215192,-0.0827387019261204,-0.949073366283461,0.289352956026396,-0.158587068187619,0.374795526878201,-0.0196218675515006,-0.421217630545358,-1.00752907650287,0.146103173711022,0.253781235396437,-1.44818449650231,0.300819616429628,-0.307164451126213,-0.960880633471601,0.0736052102945872,0.0158716523601303,1.65826924534462,0.433363040754642,-0.195811743014312
93.68,-0.574957278443524,0.218422647674793,0.783476335291189,0.100965675837499,-0.0197430700981534,-0.0930703424349219,-0.949321098732416,0.255974629618851,-0.155717904384521,0.324632952458478,-0.0226930506737345,-0.422241349928426,-0.998148319203658,0.141850299707768,0.249335315462942,-1.34978944326409,0.318016957359267,-0.302053884063948,-0.964208379721649,0.0885178854902046,0.0106923150807548,1.6614580751478,0.427734809199276,-0.194800578766412
93.685,-0.566404438401283,0.22087917664244,0.783950066856341,0.10998708379915,-0.0177383141318015,-0.0880584525190423,-0.94945230276353,0.233229992397339,-0.146964621612518,0.310668772044617,-0.0183705235340628,-0.431447238759511,-0.991703696927447,0.140038482552826,0.239698890730957,-1.26441117472858,0.329535471249152,-0.289951158752396,-0.96834817882613,0.0932049426405069,-0.0130762251055516,1.64225600184001,0.379404915675437,-0.187297025271101
93.69,-0.565363184588854,0.218769995026436,0.781980484872179,0.116376912868111,-0.0174153242260218,-0.0856055199185715,-0.953208218286201,0.200783974717138,-0.140054032147806,0.327792711276203,-0.0168249309062958,-0.432485996602176,-0.983325819161242,0.141743327656949,0.225048354410568,-1.18253900908092,0.345031764950523,-0.279416204236321,-0.970888218990305,0.0931118091900476,-0.0344386985371286,1.6142325370546,0.312348439659477,-0.17934433302053
93.695,-0.565689630193471,0.214645789195933,0.784366188559345,0.12113269234131,-0.0156438309244684,-0.0818551002140342,-0.957389576703024,0.177880629894247,-0.133682326624917,0.366664202149021,-0.0140955441534451,-0.428598837124426,-0.978830474120006,0.14498380443811,0.205336096611516,-1.10408020741756,0.362525673855829,-0.270860546704225,-0.968773519510504,0.0957545372493939,-0.0432078289725571,1.5931823311156,0.256027667455849,-0.177333761661188
93.7,-0.563692806622561,0.212199325663714,0.787787042061024,0.127664837340196,-0.0141145437695002,-0.0779705010876228,-0.957980118292617,0.174091746323132,-0.128462869149349,0.41962588769243,-0.0074702001189354,-0.422965228370824,-0.985889883018951,0.147228355451645,0.181712653376401,-1.0343404243023,0.37739401074956,-0.259655054125786,-0.957867539334698,0.107899839404139,-0.0552640467872705,1.59219024918583,0.239163412025453,-0.183285853948341
93.705,-0.558149699630989,0.215112817348359,0.786934984572017,0.137800580676312,-0.014549248709702,-0.0744240936662234,-0.951193982220125,0.17796360282589,-0.129325772729412,0.484496832176121,0.00151807708733461,-0.414994807350619,-0.986064912419186,0.153000172876179,0.165552838597898,-0.981112356018082,0.410536037718288,-0.23655607231404,-0.945218589900685,0.112225815814873,-0.0545338409386612,1.58727244090861,0.215189935001793,-0.183466702699661
93.71,-0.555028512418189,0.224848979901828,0.78405454763651,0.14287521474777,-0.011504471980581,-0.0612300549837762,-0.955954546717069,0.197576626095514,-0.123245469916844,0.532232402619271,0.0116745748475727,-0.417026119290679,-0.988038705327101,0.150076808188202,0.14267257476631,-0.946162932545701,0.427006198367024,-0.215930053469099,-0.942066044631343,0.114774778144314,-0.060176406884921,1.57757533091518,0.200083415678747,-0.186549004259504
93.715,-0.564575359644916,0.227006827957829,0.78720408977652,0.146992538419304,-0.0169887836795995,-0.0546917631522753,-0.955993072778265,0.212919573895288,-0.130907326016488,0.54507091502015,0.0177638287890681,-0.41338828157263,-0.989899209632092,0.150484015129404,0.117096253668828,-0.927444737570145,0.442542078496918,-0.201839247498127,-0.942147374887436,0.116683972237983,-0.0642824275734038,1.56091068884974,0.174608919395996,-0.180551946624365
93.72,-0.565036769352388,0.229701692936948,0.781487995147446,0.144439549624893,-0.0164459265976162,-0.0545042556936496,-0.955142067239534,0.2246449797199,-0.142643788831611,0.542030179636682,0.0227573960168881,-0.413085097618815,-0.991614427178014,0.152912520519401,0.0909741486346443,-0.912690580807681,0.453919505994025,-0.192692403317261,-0.943883582441835,0.116010064846035,-0.0596729125311005,1.54496325608876,0.158665578632348,-0.168590886066988
93.725,-0.562254139695878,0.231468572365544,0.779855469662071,0.13642248248335,-0.0190158703376705,-0.0610473331284896,-0.952555167890812,0.233630015135792,-0.150790416438651,0.529137312915443,0.0291292580132203,-0.414991289377213,-0.993230879185732,0.156858080746931,0.0657209608427994,-0.901267991659904,0.458939368117574,-0.183501967115723,-0.950043663698019,0.111386409090673,-0.0444162156259924,1.53754913088868,0.186343161901805,-0.161476194858551
93.73,-0.56360310438045,0.231406734299291,0.782602045874734,0.126352442702753,-0.025019466048316,-0.0713913495826321,-0.947196746442969,0.239745473488675,-0.152692940548909,0.506437704602955,0.0371801111634083,-0.415367022301643,-0.994394997979841,0.166472842995302,0.0422473539441351,-0.911282887004495,0.460885483049107,-0.16658089591955,-0.969327236489396,0.115014197900398,-0.0356298832271123,1.51659996217782,0.250188142044435,-0.161476194858551
93.735,-0.573961987899896,0.230345224918028,0.778085212981026,0.118348224534683,-0.0257751503340738,-0.0803432851293758,-0.946803399537119,0.238435909665836,-0.161258955318616,0.477897958501729,0.0391483726195792,-0.418319411485016,-0.988969569408417,0.165446807281017,0.0292170250750994,-0.940564907271907,0.443316266126574,-0.159748421349096,-0.983447089207788,0.105998012266515,-0.0170066999025922,1.49433343704114,0.286374768877015,-0.16062236245949
93.74,-0.570383910682774,0.240192988679486,0.77912023782812,0.10757536608127,-0.02087839622013,-0.091116143582789,-0.953197652021596,0.239466777329893,-0.162599151558079,0.453654400497437,0.0332520353750078,-0.423902941484037,-0.983121585754265,0.16267098105715,0.0252167322388867,-0.981284778059816,0.422597939172897,-0.174385314782945,-1.00045532150488,0.101966803196254,-0.0040285617463179,1.47797827134671,0.305193984841459,-0.160254508256912
93.745,-0.568489801502452,0.236420387346458,0.78336222921728,0.102238094675713,-0.0214056958167886,-0.0980004031918635,-0.956844666917325,0.235240591352537,-0.157416548194968,0.430235737089436,0.0358492219174759,-0.430386119828351,-0.97900632601226,0.162093667926238,0.0315497275176163,-1.01084481564957,0.402053042156027,-0.179418881311653,-1.01724637940187,0.102035720720246,0.00402679059341558,1.46999073028564,0.317384666088299,-0.156995315930148
93.75,-0.565700636758151,0.23834711431946,0.787381137710183,0.0999193323408458,-0.0228280535335448,-0.102793432174169,-0.960746753021898,0.22680089791374,-0.153429414495636,0.408833897770048,0.0413489606844988,-0.436424043676981,-0.978888400654682,0.166160426848292,0.047494795094262,-1.0216410853383,0.380424921528962,-0.173222566763584,-1.03063060389496,0.102173451941791,0.0121742803643679,1.47154604255597,0.332072691235875,-0.148062859721008
93.755,-0.564021843306502,0.24486246969817,0.78761966166632,0.0971331099889801,-0.0237851044627032,-0.105837705964049,-0.967626323447128,0.217134696877248,-0.157254407189864,0.392064267028423,0.0424357630001923,-0.441128755841023,-0.985266363456627,0.176128530655034,0.0713472557083483,-1.01873546026742,0.352337251888493,-0.180002350720029,-1.04910591300516,0.10296370382869,0.0289453156820914,1.48417859963705,0.346648731401226,-0.138345503561569
93.76,-0.568008622109511,0.243079605195241,0.780606413542226,0.0897742471644945,-0.0247049616145378,-0.106757563115883,-0.970991098507467,0.211847759226408,-0.168683129770299,0.386527044385951,0.0378213957896078,-0.444820245106933,-0.994396742537612,0.178743800024594,0.082630450941445,-1.01872098445892,0.321706455576009,-0.19666752210686,-1.06622818873227,0.102840624090502,0.0339129245459438,1.49957201079825,0.337321738870876,-0.119313811229504
93.765,-0.575791858091793,0.225572127622303,0.784847980906188,0.101629510975047,-0.030366788398016,-0.106798090040684,-0.964060687232841,0.200941131084257,-0.1683340569153,0.391860545763861,0.0473355195764878,-0.447935027701214,-1.0048656150389,0.17227379557765,0.0911053647354899,-1.02951592026924,0.29029153491749,-0.217544359750328,-1.06836719482561,0.100674451913062,0.0264849877003728,1.5082951609115,0.305592578759123,-0.0969358198319353
93.77,-0.574771241939251,0.212820030718441,0.787801311354013,0.101739122860884,-0.0306384818300074,-0.107516677798181,-0.962545896890042,0.183308683442066,-0.164924182836962,0.396953316889296,0.0522373719889015,-0.447475907840242,-1.01233244220332,0.156250766473128,0.0961313536036698,-1.04636694862056,0.263788469231669,-0.233275158806018,-1.0591497072832,0.0982007838978613,0.0101326849608253,1.50834018504169,0.263592619654335,-0.076583805557818
93.775,-0.568584984738322,0.206964211816934,0.792189558033784,0.105747479671298,-0.0261194056690491,-0.107016109443128,-0.965667096718833,0.163583437710664,-0.161853250163373,0.397825691307527,0.0515899583697319,-0.444107172084192,-1.01612509152732,0.133648729454624,0.0970602811054176,-1.06516527215653,0.24905425505273,-0.238677471876144,-1.0494007570969,0.0979793624377458,-0.00613576577566046,1.50210014657793,0.229618723418527,-0.0647432584034146
93.78,-0.563469982741344,0.208891986243547,0.795932488776927,0.116224738953696,-0.0213601857419278,-0.103617938767477,-0.966139821795787,0.148837187886167,-0.159234384973552,0.400269565554545,0.0524792107428207,-0.4418325554512,-1.02226271929644,0.110943414022918,0.0931766206027928,-1.08723103654343,0.252340300167468,-0.238004389687314,-1.02524783087816,0.0954508675631007,-0.0151295773748666,1.49395659697326,0.179739159272202,-0.062707358586181
93.785,-0.564908360688425,0.219068795512964,0.79212149038863,0.120246463194752,-0.0224926497304561,-0.0972785960288766,-0.963961572998323,0.142802874112757,-0.153755681070698,0.434335768479703,0.0584908975657788,-0.449848129734561,-1.01963772415628,0.0959769226345715,0.0918005441477573,-1.13205579063538,0.263297421780148,-0.215093988167176,-1.00745338935214,0.10549044836583,-0.0241516664484765,1.48778826021859,0.156171583126228,-0.0661287083776102
93.79,-0.565758316190671,0.228482211102674,0.784041713651267,0.124211914556778,-0.0254667412749209,-0.101244053436793,-0.972080700778263,0.162459336303313,-0.163420912946336,0.48651985661666,0.0616841155858227,-0.458712389981117,-1.01013539968789,0.0881922905157545,0.0863730729615603,-1.18647958997182,0.275054728293323,-0.201780595433318,-0.999993364630491,0.11061866684565,-0.0326606640475401,1.48316926591476,0.135274281223173,-0.0680815772410214
93.795,-0.573819255977102,0.232237656443122,0.78480513751927,0.11069500623903,-0.0201266462285757,-0.101911313831806,-0.974122424053943,0.183601705154244,-0.174465401638477,0.520910855612897,0.0639830012017941,-0.46001789787571,-0.997584856133724,0.0898818304555628,0.0805186092255064,-1.21916741815151,0.288757760628292,-0.191955612034101,-0.993483204093258,0.111095245857094,-0.0402110102630247,1.47827945247243,0.112985847845804,-0.0681763366801933
93.8,-0.580551116666131,0.230008966869515,0.783891169923395,0.107175725762417,-0.0241591058357619,-0.107428951801154,-0.971498057537358,0.198118284374352,-0.187818327487788,0.537364983882844,0.0612134783906457,-0.459449192038056,-0.983144264312641,0.0934396856571119,0.0751632163374305,-1.22955266392929,0.306145635321232,-0.185094202701241,-0.983654057690487,0.1089532347858,-0.04544665705523,1.46983218743125,0.0929166175925921,-0.0694299849775107
93.805,-0.586492356760062,0.223456389497784,0.780598081001469,0.109451998467438,-0.0331544966164979,-0.116740782812099,-0.967162622609415,0.202766615766878,-0.200864723115896,0.537619546872552,0.0512886704961553,-0.461185583790675,-0.968564319098636,0.0901734073913449,0.0708527336450326,-1.23305366119757,0.327429436936456,-0.180370115383835,-0.977525891734827,0.105022069099178,-0.0457912790141837,1.45309230503758,0.0860237460371769,-0.0782922466901225
93.81,-0.592980844882392,0.217683203312566,0.778125867076894,0.107353718947409,-0.0381841287016869,-0.125826386356956,-0.963202134027761,0.198901601762247,-0.205756413124934,0.521111772245447,0.0356277419734516,-0.465147589840493,-0.965002466394381,0.0877810922302423,0.0731728453634808,-1.24779522237899,0.345119286380245,-0.162680277927004,-0.975691285039864,0.10532685122303,-0.0437111153275349,1.43650738020594,0.0965377467925679,-0.0851455117083526
93.815,-0.593855375486972,0.228155520717738,0.782250726258265,0.104467412385264,-0.0381841287016869,-0.130636903161307,-0.96109804032837,0.193444450027985,-0.196275975415456,0.527865792355405,0.0240494722212591,-0.474796159735791,-0.964057959139712,0.0928080840071704,0.0805792106306867,-1.2835625829359,0.359190026696611,-0.157943416138379,-0.975272960120573,0.104806960855929,-0.0359220379843008,1.42494316587646,0.0950728136828399,-0.0898228434370056
93.82,-0.587163924907147,0.231542491636237,0.779585105457067,0.0997297749028037,-0.0416886081994293,-0.138240926845005,-0.964469132595738,0.176625596153002,-0.181298057890395,0.560053191338727,0.0158511561124056,-0.479524773095136,-0.968258750276608,0.104063966575829,0.104657991093945,-1.31198601770656,0.363800776813452,-0.149461906194833,-0.978451772163383,0.101524819115364,-0.0284731805376442,1.41700640224534,0.0944600312618652,-0.0971468278544426
93.825,-0.581438742733784,0.237376743883757,0.777781955905692,0.0934024247024245,-0.0456991801471236,-0.151518610111653,-0.967296221321058,0.165851610801488,-0.175481891285283,0.601200656764464,0.00882597493318892,-0.478865807835194,-0.976190915010353,0.117667543887745,0.132568489114839,-1.32100899840071,0.362400351053837,-0.139786892980009,-0.984621930662508,0.0948539232298711,-0.0237744728904677,1.41363285235255,0.0962980042485379,-0.108463612303769
93.83,-0.571687301414246,0.246122001832455,0.775791341752445,0.0943129477294763,-0.0475156055232528,-0.165415566900619,-0.965644229095222,0.165875603133097,-0.177855830891134,0.635660369473185,0.00641317137818791,-0.479779980610926,-0.985725915749576,0.129135817276452,0.151144517113707,-1.29956177817684,0.358688202081293,-0.13726913226223,-0.989933552138986,0.0865939066131881,-0.0195018644720473,1.41817965074749,0.0888168096998117,-0.120069824829908
93.835,-0.552173523470734,0.258952978724005,0.775750010799361,0.105442026203573,-0.0465038716774371,-0.177008891055448,-0.958798611438109,0.168041420036599,-0.173939857896881,0.653104688326138,0.0142976428126534,-0.490736365318298,-0.997247376918816,0.137401059919454,0.171036215418041,-1.23303781972063,0.347600875671924,-0.150372335082942,-0.996524608873497,0.0871975721118292,-0.0132238575561803,1.42927522161362,0.0767124974458857,-0.1220872091803
93.84,-0.523199370658874,0.279867876725651,0.786998793919129,0.115980295855188,-0.0453541374331244,-0.189526303130769,-0.950507600470043,0.155933671864584,-0.152916024245593,0.654122859125694,0.0204065620524522,-0.490736365318298,-1.00676070535107,0.131872271895025,0.182706410809476,-1.1786672926668,0.343338581626839,-0.174547236125278,-0.999179437776405,0.0848968152398211,-0.0102826790936991,1.44385538711578,0.0611210372850776,-0.122381970286369
93.845,-0.543689247669262,0.264612460453196,0.786763221544484,0.103375455085445,-0.0395365154322971,-0.176921462361026,-0.961470100522038,0.164001223251221,-0.145576820574702,0.64562150068541,0.017604310212104,-0.486432244379242,-1.0157400548578,0.125359615530381,0.187795798820153,-1.12137359778105,0.343904837977691,-0.186700902473721,-0.999263698362083,0.0847602640243577,-0.00943433725206779,1.44922184944153,0.0504304025528303,-0.122381970286369
93.85,-0.546880507171932,0.247499136561953,0.78378114281632,0.105100244876612,-0.0389599552745403,-0.167008848827963,-0.963644100733637,0.173205598545378,-0.156907189424139,0.626252135481278,0.0174216661885253,-0.48399745143299,-1.01724205310529,0.113898592064032,0.19000087559223,-1.05927177690597,0.347386462683241,-0.196069964530388,-1.00061993769845,0.088324461910341,-0.0122093643132929,1.45036388403122,0.0399131015447217,-0.124666034822572
93.855,-0.548488543922877,0.240538645968774,0.782047861520697,0.0992788749581993,-0.0378127155871464,-0.156092571166669,-0.962663883013286,0.180317576389289,-0.176121221413391,0.591103779362442,0.0166458759461237,-0.487322847106064,-1.01130025017208,0.0999261084561184,0.191110856946806,-0.995710384829869,0.352915215631065,-0.202971240660747,-1.00468413830066,0.0942186862333403,-0.019014355583641,1.45207387777203,0.0251838639515019,-0.130525205793546
93.86,-0.553026855007239,0.24324009073329,0.781094632953505,0.092834777159016,-0.0389923455719621,-0.149823678100255,-0.967184995233246,0.185736428986997,-0.190905229164222,0.541549827369331,0.012126938582097,-0.497467118354149,-1.00540194946067,0.0915938924695434,0.192140774194031,-0.938101599028749,0.359526061036345,-0.202026840756586,-1.00321886459946,0.0933051316490295,-0.0227709839980234,1.44737390345445,0.0129637937146844,-0.13522523743795
93.865,-0.557392842093343,0.249620643861778,0.777973314416528,0.108403273038126,-0.0501889799719967,-0.159755143109602,-0.975753494685165,0.192746526759462,-0.197991983881566,0.489395540816237,0.00911803884633933,-0.512511623149594,-0.995090820584365,0.091915922317137,0.188232928053623,-0.898977257507429,0.370559033594146,-0.20603810049729,-1.00056194220677,0.102297483556814,-0.0175457171784911,1.4362679322959,-0.00610182441115091,-0.136696499501361
93.87,-0.555416962118708,0.267136065714515,0.777913658478681,0.0941853034210063,-0.0451111336801682,-0.16991084808029,-0.975908391624576,0.195626130448905,-0.198530689274674,0.434764145999184,0.0115889851429948,-0.523142993553472,-0.976416152817353,0.0975134485684889,0.178590674066004,-0.876116583381407,0.37774159538125,-0.209301139053578,-1.00250194732589,0.112305436639584,-0.0204389532785013,1.41937763680928,-0.039840266057074,-0.137712864278176
93.875,-0.558143980517755,0.280356184802673,0.769438056938652,0.0766324588148041,-0.0493795923860466,-0.183417538546892,-0.976292319208805,0.201673818423832,-0.205234530871708,0.384205786588642,0.00750285801012807,-0.527592012621521,-0.960591563695953,0.104600275226292,0.169763719891272,-0.856032429645045,0.385619185029134,-0.2194499709568,-1.0017420590208,0.119977643018471,-0.0267034643501736,1.39951099028036,-0.0928892271204699,-0.142021983741151
93.88,-0.563003204997826,0.277103027318736,0.772233173760194,0.0546022613578056,-0.0548104065689804,-0.197577001700144,-0.973138591151495,0.202068144929621,-0.208393547900112,0.343225346633256,-0.00409296288785789,-0.530618078886951,-0.951774045162274,0.110233117442269,0.163800641203391,-0.831710670743464,0.393202976181294,-0.234255890152053,-0.995738700003282,0.125614024358331,-0.0287451190302835,1.37976657134451,-0.154804158847723,-0.149344625849434
93.885,-0.572191615384828,0.270252863308231,0.774365094233231,0.0359588828468426,-0.0589921615604281,-0.208697482657943,-0.965404272577084,0.193164726419163,-0.203863760623816,0.311522383946934,-0.0170252090345231,-0.537761572661284,-0.950276457459993,0.112063065294936,0.159201723408537,-0.802421995665453,0.395256866658112,-0.252272232853893,-0.991939014752567,0.132546978868157,-0.0239203452234514,1.36163757941317,-0.200700944810602,-0.154065648358876
93.89,-0.581623463045307,0.267252375459693,0.769060187290253,0.0275388778605997,-0.0617915975129358,-0.214504838553133,-0.956533968966045,0.178473699982771,-0.196496077063098,0.283866911997097,-0.0219571071696755,-0.552495960163603,-0.958743391814811,0.106772130638722,0.152216338501489,-0.772531902334739,0.382304504223747,-0.290133014498813,-0.983875573325899,0.141311136852228,-0.0149315412804427,1.34064181339431,-0.219697081546712,-0.152066055660057
93.895,-0.57158105986756,0.248484016472619,0.779617188283293,0.0295742940100517,-0.0638270121107492,-0.215522552058594,-0.951615658238552,0.155255513057054,-0.192421607073841,0.260428914821078,-0.0260332795107743,-0.563705390598721,-0.971957807635009,0.10016586261953,0.156559680377052,-0.736342410839603,0.37387922453653,-0.323942002519883,-0.983364247191514,0.153946570919434,-0.00505264875646784,1.32608645263405,-0.214888349668632,-0.150876520538122
93.9,-0.56160827584322,0.240302396352848,0.777997044362298,0.0366429385747245,-0.0688796721941923,-0.217544886789588,-0.960016933240575,0.137082345328143,-0.18878374606842,0.251929451689263,-0.0318480343393469,-0.574008960974,-0.976227197474054,0.0969366062093977,0.155695074651602,-0.704943587207268,0.360472554378024,-0.349280058002137,-0.983212847457345,0.164880478614586,0.0111029961414688,1.31167983113418,-0.206609331418295,-0.149863337928512
93.905,-0.560045494223332,0.248818423880865,0.778858888108718,0.0357507109745727,-0.0659679401316907,-0.217972293496132,-0.965363314886952,0.124716417995651,-0.184458810505853,0.260307771062734,-0.0391581302235199,-0.576822984858561,-0.983902922967221,0.100862515244623,0.150009548375956,-0.684941750669104,0.350236513144571,-0.369172762006102,-0.985698757445484,0.170315814834398,0.0276984596934843,1.30141184461086,-0.201174057840995,-0.149661470718978
93.91,-0.559536172558207,0.244755908012026,0.781781451718868,0.0361794743501173,-0.0615654541665838,-0.21740372476234,-0.96673387409682,0.114481885062514,-0.178588479030508,0.274435724785134,-0.0411823262918964,-0.572895112322301,-0.992804708196308,0.110772159693347,0.139999358993549,-0.662537978629616,0.348146344634026,-0.385730674688278,-0.992588834841097,0.168843414507355,0.0377727326425629,1.29809079783795,-0.198370579059855,-0.149445790224274
93.915,-0.557959770476713,0.227047910233924,0.785291008742321,0.030781292027191,-0.0549397163421499,-0.213406243078459,-0.968155224333856,0.102914670042148,-0.173532540154828,0.284422098728727,-0.0349087489049947,-0.565383934595831,-0.991081663431519,0.122527170523856,0.124979838666298,-0.61487420157267,0.355336476637565,-0.398487511848859,-0.99606597433742,0.161431997753899,0.0411845133707118,1.29315028721277,-0.19639436516807,-0.143517112392491
93.92,-0.555908473926753,0.207682847220563,0.787504249410838,0.0150734480162253,-0.0450338022592284,-0.204215995462878,-0.97742041356719,0.0881492607983169,-0.178973326941552,0.286415223704415,-0.0269361882258623,-0.559404511047662,-0.989721121506473,0.12966612186807,0.105367866821768,-0.561585964466066,0.367178304430952,-0.39454023591773,-1.00409168220995,0.163686835520976,0.0513697638059425,1.28456756237781,-0.203629970926011,-0.142231067616639
93.925,-0.55312479037859,0.194352354218516,0.785859685685723,0.0502480509259637,-0.0518733060632799,-0.201284773588119,-0.96972423494205,0.0724911978093634,-0.170542591583353,0.297774303183575,-0.0200216076138906,-0.559151232242584,-0.984300723670198,0.136675870610747,0.0772506847058055,-0.526155921550831,0.383857256687764,-0.38655456073128,-1.01106049436675,0.162018016536293,0.0608377763695225,1.28252987645122,-0.227810774578949,-0.14328940053373
93.93,-0.553854722803903,0.200495042358526,0.791884735563696,0.055242583155632,-0.0545320757647236,-0.200868561863899,-0.969368873252237,0.0677703817467691,-0.161600732711074,0.318898561117912,-0.012370281283212,-0.552055812807598,-0.982590915984334,0.143801800958933,0.0482634430347739,-0.502858547406193,0.400186429768234,-0.374535531260031,-1.01598080366267,0.158687793787413,0.0657598149264256,1.28357841537845,-0.258322856973627,-0.145386542335967
93.935,-0.550222675030816,0.214991772279235,0.791031727778359,0.0559419083299953,-0.0517912376736902,-0.195973304835258,-0.967938874790605,0.0674046228863893,-0.157999614459776,0.348338507807939,-0.00334383472568888,-0.543853541401399,-0.981031113509095,0.153205900320166,0.0187587492200509,-0.485867398969639,0.415394904621517,-0.364157882330892,-1.01710792270319,0.156928086516019,0.0706281790236788,1.28782413867037,-0.297585909694424,-0.15286908304976
93.94,-0.549342894566113,0.21632485137268,0.794175912889033,0.0518811008533769,-0.0468877937469765,-0.186205797964634,-0.963263950666531,0.070339788103933,-0.163422331875958,0.374301143211345,0.00519780703976996,-0.540825843811035,-0.972341211764925,0.159732972500971,-0.00641677990145132,-0.480286718015936,0.432079101413442,-0.361374483377827,-1.01614753343651,0.159939490582732,0.0788388029795713,1.29487041716564,-0.339821106789907,-0.16755240584843
93.945,-0.558572252556096,0.205909041236039,0.790327753894141,0.0521204337109182,-0.0494960615540947,-0.180552263085772,-0.961908057793378,0.079446116784711,-0.161843107018996,0.385234072559979,0.0122728923760858,-0.540825843811035,-0.956944988406291,0.163624941617798,-0.0216496272916751,-0.474598017307469,0.43893763422966,-0.368645918119362,-1.01750347304906,0.162790991970219,0.0833726701609883,1.30406124273578,-0.38544473432688,-0.177505588039093
93.95,-0.558480858095669,0.210231874350853,0.787010980766047,0.0747169177987306,-0.0446332586014687,-0.177792628296392,-0.957963830402767,0.0776222470267551,-0.159047445412078,0.387797935709823,0.0170754366430413,-0.537467828191418,-0.954084238387524,0.165757912821695,-0.0184701546923861,-0.50139690671435,0.434652616248144,-0.386839721921338,-1.01294857622398,0.161697766466923,0.0920725065795447,1.30957925770792,-0.432626473807242,-0.182912574095675
93.955,-0.55953283342429,0.20532403444736,0.786197422906358,0.0542528213644537,-0.0372564002468779,-0.162903443447978,-0.964917545556734,0.0777277990668755,-0.165652177157854,0.368016177694193,0.0284740525127167,-0.538189892261846,-0.951176066932217,0.172875170737902,-0.00934656057209817,-0.524709226020948,0.431663371116732,-0.410433405291819,-1.01114590894886,0.172134758245466,0.0962806724717828,1.30994868278503,-0.478519496939494,-0.186925416160555
93.96,-0.559019657556465,0.206430403807685,0.792109531501234,0.0586735276807701,-0.0250051231538166,-0.142708256606575,-0.960818862155232,0.0703297423330196,-0.158780216535678,0.356674972688005,0.0322106408307817,-0.53401672355834,-0.958552453035737,0.17936882498101,0.0169636617354657,-0.538703954495112,0.434357944498012,-0.431916558791029,-1.00024501519438,0.169054330481238,0.104676645760694,1.31500327978376,-0.537246136625227,-0.202015921268135
93.965,-0.561968963106033,0.198639395576902,0.791747134323932,0.0636172174742249,-0.030157654155928,-0.138391223365692,-0.970793715111696,0.0657859542996648,-0.162506444974562,0.335793725639011,0.0411710244750872,-0.536584445143146,-0.961062556756538,0.188169893274472,0.0389409118995856,-0.551733286582784,0.437208601227793,-0.451645968310185,-0.994755564070503,0.173928016536731,0.10382672538145,1.31850051879883,-0.568933660093926,-0.209802827274897
93.97,-0.56052706934385,0.1946392875182,0.796183419050718,0.0714650546833591,-0.0266681679618866,-0.12966984271867,-0.968670553997418,0.0702335388725296,-0.15855170370643,0.327050922767113,0.0452461421380462,-0.536373415967378,-0.964547914771683,0.191303906831756,0.0626057754887202,-0.551480513606139,0.437797722110226,-0.467639357265988,-0.989232787082371,0.172018582734351,0.106452571978906,1.31895629373334,-0.590259152641105,-0.228504732122358
93.975,-0.548586828319343,0.208824017447195,0.807851066970484,0.0780193247326198,-0.0145244475754807,-0.119184407012173,-0.970864891769964,0.0775180107055121,-0.146094445919498,0.33047954213072,0.0570859075968767,-0.546016650236274,-0.967406137528557,0.188086963644688,0.0731409215046386,-0.550725764033274,0.443540524268602,-0.472675022484324,-1.0003616072701,0.175485864245521,0.112411639103222,1.31763493561108,-0.589844012041694,-0.234421836813957
93.98,-0.555575255935479,0.233122183562218,0.797741841081455,0.0917560958814725,0.000345138031922159,-0.115548465182085,-0.983060894069006,0.0845944998391418,-0.141984875944397,0.344079969145709,0.064572057627664,-0.554573062669733,-0.974837993460061,0.182325473637633,0.077592729244395,-0.545635631203612,0.449707064953477,-0.475686192512512,-1.01692314113896,0.1680316948147,0.114827721684679,1.3160572052002,-0.580115150764284,-0.242211464059844
93.985,-0.537890933761496,0.241542966156903,0.792061108398391,0.0965328721739684,0.00322981842050129,-0.0977814857452285,-0.984957850839015,0.0935274713092651,-0.144912817850093,0.347427572531324,0.0735475897047045,-0.561875392735575,-0.979768224092809,0.173421298649213,0.0750069868283531,-0.542862341149331,0.456259238435659,-0.466497819722782,-1.03995893139541,0.158752209227731,0.109433953520078,1.32305629403686,-0.585439897069088,-0.24755104365102
93.99,-0.545691076132265,0.243144868819768,0.792187515793092,0.103638590233287,0.0202666473322896,-0.0904504421270122,-0.985200808326843,0.101450632609983,-0.156396773362364,0.346220866796298,0.0676138027644921,-0.567844941261487,-1.0062795994138,0.155311804776318,0.045479284388877,-0.525036460575949,0.465910805248954,-0.451444085406736,-1.05084757248459,0.156309980958888,0.102105768962822,1.34547319888656,-0.622909394400944,-0.256816073487795
93.995,-0.558525349786121,0.250975385099168,0.78003553343501,0.115434514604,0.0347071591749061,-0.0657116014119082,-0.97813566353116,0.0961126681072567,-0.167312188103541,0.343616763904021,0.0706717297145942,-0.571054126642557,-1.00598263067782,0.139273136679102,0.0410023291226669,-0.519658821507511,0.471821795656363,-0.461127690587319,-1.06143933203966,0.142303229324654,0.0941590425122549,1.36457906834219,-0.674820237364685,-0.265655837086704
94,-0.554664941678077,0.236218302534085,0.785246676568496,0.136847518423008,0.0480660831056134,-0.037896643808444,-0.975007790005408,0.0781017671809117,-0.163073084235134,0.344713863602153,0.0757294888581367,-0.583069518306935,-0.993155737206223,0.128836481912272,0.0381674630169038,-0.527188753888161,0.485761783087641,-0.461639506786161,-1.06173673062184,0.127764140799918,0.0897828586484867,1.39741222775624,-0.739674292440198,-0.271669772319501
94.005,-0.553495763271001,0.227472006046104,0.789997409787623,0.163642403459809,0.0603979109222596,-0.0131394455920388,-0.965854722742751,0.0457874587765712,-0.155493312494248,0.360610932149504,0.0717348770647477,-0.605070698699848,-0.984068275377436,0.131963353269023,0.0236388210102058,-0.534035820569921,0.497080776413672,-0.450269383653168,-1.05229617595699,0.111086252937256,0.0936937602005387,1.4345861470227,-0.751281963446954,-0.282231437061394
94.01,-0.543982923768679,0.219062799538596,0.795988176922847,0.196792015460141,0.0778125664646832,0.0298645669176666,-0.964149061499027,0.0244084151783511,-0.162746608764477,0.393816252792042,0.0640579463456613,-0.62496372158471,-0.96705383716826,0.133902052030236,0.00697460045943791,-0.552975513457167,0.499132448299441,-0.431914668441179,-1.05056040539718,0.088009594928465,0.0955810794671716,1.45271403657119,-0.705813683928083,-0.280549581784971
94.015,-0.549555869535991,0.214696599110299,0.80376001292359,0.246178741923845,0.0955809973648005,0.0647567014780438,-0.976753795459279,0.0129080310758535,-0.169194926765378,0.484567429071083,0.0519609870489705,-0.644484335651615,-0.957879150747961,0.1326760571326,-0.01089540600485,-0.56720456697395,0.492067026948812,-0.427357670833576,-1.06027533778266,0.0677899750992925,0.0871983334718656,1.44320925020434,-0.656799080283528,-0.275656735575008
94.02,-0.564135599949908,0.22751417017586,0.814341988864933,0.285253786164162,0.118040289454186,0.0981594683920121,-0.956362444938101,0.0212708589397789,-0.166926521850733,0.62211554576257,0.0361859400025855,-0.654794039101409,-0.954850804309765,0.132892681448856,-0.022429399056056,-0.576935447166828,0.482199440496555,-0.416649137674173,-1.08229808644303,0.0520990288773112,0.0818490817704052,1.42294192134887,-0.617603834095727,-0.275286304509211
94.025,-0.564769263075902,0.259502684590113,0.817758306940604,0.305055601905485,0.138090486405264,0.112908130451943,-0.997068466303642,0.0390519746591306,-0.156883823985161,0.744091248789568,0.0263615347698349,-0.666630470526245,-0.957094296565871,0.139567538129127,-0.0314813486641223,-0.61587465923998,0.468875941695257,-0.398052790252278,-1.1191320437892,0.0230176586630402,0.0793620398975191,1.38038788156476,-0.577966107621488,-0.284882137599371
94.03,-0.541958137820484,0.279991216339666,0.829586702550511,0.318146310874235,0.155868124225727,0.110990963833726,-1.03525162618278,0.0768724191375677,-0.138813815835241,0.867167583440744,0.0215038966095072,-0.660546981216966,-0.972480548705397,0.138475381739732,-0.0407399016504675,-0.675464617561156,0.448191828770428,-0.373951232763727,-1.16877406386884,0.00133035047783429,0.0704207611930124,1.33093396633473,-0.536047751564947,-0.30283312338555
94.035,-0.531339649565651,0.323710800187046,0.820247462705047,0.315957175059221,0.175209746103993,0.0985762419952134,-1.0865346691251,0.157054939970551,-0.101565278034586,0.988238841534568,-0.0174736274536733,-0.633161070244846,-1.00203872939321,0.127074704304743,-0.0467874008599771,-0.703040123401622,0.434322899822367,-0.359897262100352,-1.19676142914829,-0.0130148046014852,0.056673319471804,1.28936696174206,-0.515717471317608,-0.318540402427785
94.04,-0.526463754101998,0.365137235618557,0.800715265210826,0.290290456202124,0.199252802485567,0.06261640876606,-1.09827189690399,0.188570702424629,-0.128181822416141,1.02810802237011,-0.083289445840327,-0.585151333033454,-1.04821851283596,0.100633151552258,-0.0676055167957871,-0.770409543502179,0.401021258634814,-0.358257197338777,-1.22271542919492,-0.0330945072181478,0.0193038906354842,1.26333132408976,-0.537639566002162,-0.353346640384042
94.045,-0.538274454728193,0.393290681349909,0.790193070940342,0.249064039593549,0.215663754921722,0.0190870331998722,-1.08668310077354,0.212328067086577,-0.183114699382894,1.00697545435548,-0.13142953595236,-0.571956708892697,-1.07550474924469,0.0673670991553527,-0.0945034073217182,-0.840844418105122,0.376019575745617,-0.361213886290184,-1.21397816809939,-0.0424902466957156,-0.0263055508819698,1.25281153723635,-0.595833406406516,-0.391313659660443
94.05,-0.545329416559096,0.38411107242931,0.78732276842191,0.219090569758376,0.224920714176253,-0.0227774614623836,-1.06937484517249,0.228481837800938,-0.193154508399403,0.995200936980564,-0.156380327162644,-0.561673604450481,-1.09315010456045,0.0309086012564157,-0.111415319297697,-0.930735729716724,0.34735185483657,-0.377583869171709,-1.19021049784673,-0.0515201943399629,-0.0604253508786695,1.25896222586708,-0.658997464242318,-0.424355240446254
94.055,-0.546375956171883,0.377277158547089,0.784377172354795,0.200685295908404,0.236642175772422,-0.0755563276130152,-1.06293845955925,0.201477362017958,-0.208975391090434,0.941155449584001,-0.190190769974112,-0.553528334655605,-1.09853962531037,-0.0212861873521426,-0.125860680124701,-1.03710485478092,0.322037613616528,-0.388863259832858,-1.14833491128245,-0.0630002900700739,-0.096988615995512,1.25702967600535,-0.689792503750025,-0.457534581359938
94.06,-0.561474658908249,0.37389469268934,0.776765101185872,0.172759745436374,0.255856332139386,-0.121252892577419,-1.06065857297379,0.17382177022162,-0.225675019711946,0.855626573829422,-0.20650192393729,-0.55940537146842,-1.09551024439085,-0.0722956462231761,-0.123838408578143,-1.15711195740845,0.289801992572466,-0.40180196983429,-1.08412180739884,-0.0680739385172313,-0.125386605040901,1.24534466471512,-0.622394056876498,-0.477174859295282
94.065,-0.581079141221671,0.379320412464326,0.805699886440821,0.171269673152024,0.258437950193022,-0.1802477740751,-1.0510443339676,0.137323049392562,-0.232253175558356,0.803852668371652,-0.193507500773512,-0.57333381430014,-1.08569972810916,-0.118091111998408,-0.109870959418669,-1.23923092647505,0.26371019556955,-0.413836433400988,-1.01748490010595,-0.0760761620619894,-0.14690106547898,1.22959536758197,-0.513261790794835,-0.477266261101499
94.07,-0.593717414476205,0.367536916324407,0.777682296566047,0.162621168596411,0.257230317463324,-0.235380583003756,-1.04903568347612,0.110119235657197,-0.24747725838573,0.777279854574765,-0.179273519130397,-0.583737252099606,-1.06376742101094,-0.161986010523515,-0.0825911373105385,-1.28914792520455,0.23443459626119,-0.419488251209259,-0.962290125476699,-0.0887664632900244,-0.147180432105856,1.20184735536406,-0.330421775072635,-0.460547685847272
94.075,-0.610015354840195,0.32373253050497,0.771187423043221,0.145804158595236,0.256258441149858,-0.311247615836562,-1.03591631829526,0.0861089014363709,-0.257572191965745,0.778607609354961,-0.149848750805114,-0.588330917280011,-1.05367280452747,-0.182719397708709,-0.0513797737255779,-1.30187309044016,0.211791972621514,-0.409335903602462,-0.924185199390051,-0.105018080467671,-0.137803180066443,1.17285253051501,-0.132101212197627,-0.438190743050998
94.08,-0.613733253711022,0.311395388065569,0.768399044787323,0.164061638023788,0.252760012360171,-0.369863856621301,-1.03777587190017,0.0804329384019261,-0.249854857459846,0.794088695366165,-0.130927791369119,-0.593676665764824,-1.04980135301392,-0.196869929121936,-0.0141888815159481,-1.26730355540579,0.194079382902638,-0.39175525039004,-0.902066172959692,-0.121896629248941,-0.112499419607167,1.10606987009839,0.107325381771201,-0.406712736945567
94.085,-0.606220230010721,0.279010831106561,0.778837728773963,0.190445652969102,0.251691593533009,-0.425896535399451,-1.01798155722462,0.0751528302059714,-0.237798914875981,0.815227878047003,-0.112268813817998,-0.583698923531564,-1.05479727162292,-0.199449913066747,0.0162859038978966,-1.17377532768632,0.190543008615026,-0.361529904159409,-0.905875076047783,-0.139014648716586,-0.0783107243249135,1.04067711761504,0.285598398499356,-0.38467272179197
94.09,-0.605234910241505,0.210768231564014,0.799648531074571,0.251310680864553,0.251711589509002,-0.4897980966701,-1.00601903505644,0.0701204428015464,-0.240229891541311,0.841301705591858,-0.099079318555395,-0.57027054657457,-1.0634264168199,-0.191604389581185,0.0361929533167268,-1.06912937745748,0.199742910723406,-0.330022683904561,-0.918560286992715,-0.155168383287933,-0.0417999322070212,0.966525291209956,0.423889888913178,-0.38015952706337
94.095,-0.625920924059775,0.232135646233903,0.802886350194045,0.361210331267425,0.246441943105271,-0.567684926296683,-1.00377904681977,0.0743184668500166,-0.228349159277958,0.872117005415769,-0.0950133800506592,-0.558821762536996,-1.0791126869866,-0.182980277961902,0.0509446138611391,-0.935704573751727,0.213075819861422,-0.298237153079686,-0.937914349303112,-0.166524118126131,-0.0130310302582222,0.905800231837943,0.476744098157192,-0.386820746326517
94.1,-0.629190240310274,0.280868214333373,0.806664912602781,0.437614077850875,0.237288222730135,-0.640482766126063,-0.997873797023167,0.0807190130470286,-0.215286278355538,0.946805233444854,-0.0967983074142241,-0.540314287258782,-1.0978740480172,-0.175480702967221,0.0477129806528314,-0.735754184021567,0.242288225294931,-0.251676759696451,-0.957432030261864,-0.176516235760111,0.0116553575230416,0.854506006520387,0.470191236874183,-0.410527331278212
94.105,-0.631105047739219,0.246261529006334,0.801560285597418,0.491993396005434,0.233425091981391,-0.728152453774914,-1.00489861969345,0.089561401888394,-0.215611231728773,1.01135950153947,-0.0932465955955164,-0.506298658452318,-1.12214664329916,-0.167603112716406,0.0372075127364227,-0.581015007005297,0.271175596025559,-0.210232362989282,-0.978005235058472,-0.171911425726522,0.0237001236582029,0.831449024193542,0.397900317022945,-0.430807199560911
94.11,-0.651254029054527,0.280743170632596,0.800528470332208,0.609983724327242,0.239400549855808,-0.790215874855355,-1.01313121365314,0.1000010030838,-0.222981231434343,1.06808942752256,-0.0889264837483601,-0.481085023143002,-1.14094854971063,-0.148325510132355,-0.00161823858611733,-0.474067644960217,0.300967501661853,-0.16937418152181,-0.99911359834922,-0.164198408661455,0.0277618242026662,0.813684035179112,0.300119273128315,-0.451126034801131
94.115,-0.670279579693912,0.259016546284871,0.783934999983743,0.688038133316977,0.18733014335225,-0.88798645093358,-0.998842631622744,0.118805393755173,-0.22168378194936,1.12035670895522,-0.080506000823372,-0.446603042436189,-1.16573647453233,-0.116800463965045,-0.0163058135006111,-0.376423882777832,0.302701021561341,-0.173829447530154,-1.00720841449512,-0.167132453293625,0.033697765036698,0.814452804463406,0.225102591044335,-0.471889038151758
94.12,-0.684035521207493,0.246147615486918,0.782219007885284,0.81581489550801,0.156114685862977,-0.992854538764558,-0.995396040503276,0.146660827215274,-0.23419138121914,1.16266668662843,-0.0577466461222386,-0.405101623898202,-1.16436006207421,-0.0864925653938581,-0.0671967665139513,-0.362183770407385,0.329472342263514,-0.150689131207685,-1.02073605458436,-0.148494997651958,0.033335337213017,0.845647375802972,0.144861654391992,-0.476897113410169
94.125,-0.721469804719032,0.226875136268788,0.784934247091761,1.05777920966421,0.10070082778743,-1.15293360836087,-0.996275739962621,0.17374100625292,-0.2337740064875,1.19911335051952,-0.0377799646181061,-0.356261230015807,-1.16280994516023,-0.0461283870880872,-0.104705378769989,-0.352363165777433,0.33999533453407,-0.12118180861469,-1.0251286972869,-0.148049175117948,0.0385903868571382,0.859128604893648,0.125962279767669,-0.472697684832942
94.13,-0.710752101374085,0.29315767407486,0.762389615364708,1.25371233552954,0.0476965942617498,-1.28329611324033,-1.00994647857603,0.183688457747604,-0.249238543781985,1.25851262179188,-0.0113898189286338,-0.29570962217932,-1.1584783894435,-0.0213475801632723,-0.143984320222819,-0.349451890877691,0.348010494765393,-0.0886984195360855,-1.02991810058068,-0.149143102712575,0.0443335863184448,0.877009084245171,0.107614552009149,-0.47451923901787
94.135,-0.703870258001445,0.394186332756835,0.763028075955619,1.41493947111064,-0.00700632466880627,-1.41107107565038,-1.02099560347472,0.196143609142527,-0.271841649595379,1.32808715621689,0.0233907601287517,-0.228212354579862,-1.15707003195206,0.00563143373240786,-0.18972518357006,-0.348416493591257,0.352931182627558,-0.0379831927855057,-1.02980243822545,-0.155010180828706,0.0336996097042934,0.873157046722229,0.111695176331083,-0.466899812221527
94.14,-0.601214752504528,0.2962927363793,0.700143850692017,1.49202347775439,-0.302061755850782,-1.62910187176049,-1.04191021521235,0.232691933613681,-0.275624956885286,1.4096259834916,0.0646745945944481,-0.157652490976621,-1.15267808664421,0.0155634663206148,-0.229476877175012,-0.347375136548779,0.358256460897053,0.00355751042053706,-1.02750701456328,-0.16539853985715,0.021642975025727,0.851785234779183,0.134130187031024,-0.469521734083348
94.145,-0.563633795679029,0.326514905773114,0.853936733947206,1.86998256276111,-0.343766297509178,-1.77878356402508,-1.0487957155693,0.297133659407715,-0.296528118538563,1.49443628923239,0.0950293037660959,-0.0505655891861507,-1.14946100420408,0.022797060110776,-0.269502484063452,-0.368850312276537,0.361721132091838,0.0500338849049147,-1.03141247893263,-0.16150375142859,0.0043865469032719,0.825183610969009,0.16542638962073,-0.474853701236298
94.15,-0.708176503040091,-0.0181010181531383,0.80411470598259,2.2984746109824,-0.372125208758483,-1.83645090941578,-1.02039657594941,0.395808353841645,-0.302038255071865,1.5425259414232,0.116623125985407,0.0624309424027838,-1.14108660252944,0.021248446178601,-0.306253287037437,-0.397654677773844,0.366776655224948,0.0833639285444541,-1.03812745856375,-0.171776892335168,-0.00679533191615432,0.799509713537474,0.180505838143126,-0.474302543919731
94.155,-0.954458130378127,0.187637982198841,0.824783446211819,2.87031107370769,-0.561132391901091,-2.16986803606957,-0.946561954116152,0.40601561424454,-0.357447289947031,1.74285904629009,0.15608976264997,0.192574583504812,-1.13932061126207,0.025665589278892,-0.357946027084584,-0.461384998900226,0.385511611028594,0.131831611774347,-1.03669263036574,-0.175818628867651,-0.016069443900038,0.774028804026576,0.190737186281086,-0.477899899896186
94.16,-1.03580713335651,0.88582522428254,0.709913607771543,2.92857637929647,-0.834364724124971,-2.27388856042406,-0.951004746080698,0.299988308652802,-0.345887850661702,1.99514604139121,0.18363620477277,0.290138847793193,-1.13166556972107,0.0305322989469827,-0.422003204703774,-0.562908250121333,0.419808078832032,0.177609542606342,-1.03754665806019,-0.17253864080356,-0.0236660317635343,0.764421558104607,0.195240316910682,-0.489525493627807
94.165,-0.871117257599392,0.607087031059894,0.668373869918552,2.61594913936914,-0.999066871230426,-2.55249625100176,-0.977542993583999,0.222393149140964,-0.317777752258398,2.19471903560408,0.191254908781776,0.377930525216326,-1.11727505264909,0.0402286442721595,-0.47086622115635,-0.681132663311774,0.446481583097191,0.212828580659965,-1.03712030312833,-0.179000635636757,-0.02402487565917,0.755766104203571,0.173517052901251,-0.499665870008198
94.17,-0.816124838968139,0.273373150809294,0.625502014832431,2.47269827508812,-1.10487032170695,-2.84075094002023,-0.965064344781501,0.115275511927055,-0.347682904178649,2.5171798864578,0.227116381849173,0.477022027549911,-1.08480685614934,0.0549744750630844,-0.51254832989739,-0.84085620962728,0.475402641179494,0.23497747529735,-1.03010826437985,-0.179487149242842,-0.0186127392831433,0.759129471891716,0.135525796356731,-0.509172028797961
94.175,-0.927032922262082,0.275717284306931,0.641334915892207,2.47416978146686,-1.17091900934276,-2.97092589331608,-0.947268469542009,0.00113342913717147,-0.390283228251038,2.95790837743397,0.281898328952517,0.557516946853462,-1.04119021936488,0.064003998438423,-0.538991206493308,-1.0404147154263,0.495153801491381,0.266249264289422,-1.02333729203569,-0.181295114343005,-0.0153323465059901,0.749800666509038,0.0978250999407492,-0.509095117085013
94.18,-0.977361092413589,0.362878508550385,0.677083904016912,2.5014626064986,-1.27915224551605,-3.05549280070561,-0.938400715893215,-0.0517418759171489,-0.389022674788516,3.30396985086001,0.330150509736339,0.594316790273043,-1.00769001281165,0.0704989412614016,-0.556382386229924,-1.27499895177479,0.49976930381172,0.30181349159826,-1.01646806081396,-0.183291196885965,-0.0185326152941331,0.747584644234697,0.0679866513273318,-0.504319789896849
94.185,-0.861635420382164,0.432768542538397,0.635011059925514,2.46433497235995,-1.36496378094894,-3.13480291932026,-0.954794843987761,-0.0672488671483839,-0.355216270968309,3.7208858521061,0.329062016915646,0.636802780887127,-0.97908115830364,0.074241657758405,-0.544418705628658,-1.48635141021478,0.488977850734695,0.316869211913954,-0.993652513109625,-0.185614989975731,-0.0148541184989374,0.728919354884397,0.0368299146629281,-0.490609256236325
94.19,-0.723449478111429,0.377241514885313,0.573612434010598,2.38877051295369,-1.38900156031948,-3.15562614720195,-0.952375890872024,-0.0733335042729909,-0.329028377706836,4.01630597357836,0.329719681898208,0.661490552079722,-0.947154682967419,0.0708343133144386,-0.528501919986087,-1.73657208274424,0.45337121802256,0.328046673224607,-0.984661640366095,-0.188663357122014,-0.0130864672291404,0.714251978165144,0.0337445191740967,-0.475603675114734
94.195,-0.649671114233243,0.241322874687375,0.498851455284118,2.39159977552218,-1.36022873828142,-3.16352803558717,-0.931569763473868,-0.0624516816186813,-0.305021194250682,4.26653408800624,0.33010457681681,0.676576868633918,-0.925758922410988,0.0610429123388773,-0.494372503060818,-1.92023062839954,0.420799425396321,0.332240307239817,-0.979182486600672,-0.194855313986898,-0.00656853882881556,0.699223720993744,0.0427258495031894,-0.458173584159264
94.2,-0.629888722556135,0.184282749696307,0.490133982119862,2.47362843979061,-1.30074785812174,-3.15628596808383,-0.909290481537807,-0.0300450044192834,-0.285901251584769,4.45117907449323,0.336308456805534,0.673667561231849,-0.905974010665439,0.0466153758461555,-0.452414340293226,-2.07900091768635,0.387043354673592,0.327669695472387,-0.9718091174681,-0.195340405806629,0.00481635823850207,0.690356648846153,0.0612481024164952,-0.447802813115448
94.205,-0.638419218625808,0.228658949575568,0.519110351749854,2.57299823674695,-1.23364874792086,-3.1410791206626,-0.893514452931855,0.00959481016535787,-0.277437984653648,4.59991935508452,0.343358223107951,0.658163792064375,-0.888582736679523,0.0258831738049084,-0.404653464937889,-2.25028764774745,0.348008559075506,0.309808807081161,-0.967607148341004,-0.199424461100439,0.0110558543384791,0.673275786951645,0.0852250345622167,-0.435303192800415
94.21,-0.664266081006854,0.312563970699152,0.542574342142043,2.58215756253365,-1.20835042624361,-3.14081946418695,-0.877995642009741,0.0572829179370784,-0.268927569946475,4.64530883465359,0.353474663251091,0.64505589673004,-0.868943779952851,-0.00794097832679808,-0.350398136535727,-2.41673244205901,0.310265863247852,0.289961738924448,-0.960799580941671,-0.207060984472349,0.0155587767473092,0.660724791771693,0.0882016626219082,-0.425756573727759
94.215,-0.675484372506015,0.367130705849072,0.556342490890078,2.49326901968079,-1.2072409604858,-3.15488908353975,-0.865455138852676,0.103191302801287,-0.259439263628805,4.59708014925694,0.363388452008231,0.638655273813671,-0.847849551500245,-0.0530353592057982,-0.287073807270694,-2.56960888589384,0.271911935289291,0.256274808595736,-0.962864653650599,-0.211542920706682,0.0192616978487763,0.654701360290825,0.0787919444558868,-0.426182593789906
94.22,-0.670262124073105,0.377978675055125,0.573181114264287,2.37895489517078,-1.21175685694262,-3.18472228213286,-0.850105877308721,0.140501598484428,-0.244650013096093,4.45726573044187,0.367127925711941,0.647070171444259,-0.83840755685779,-0.0911854361583988,-0.235101546278813,-2.68306937318422,0.241247088713203,0.223368368920857,-0.9552375541842,-0.212621175154899,0.0291289849315093,0.652782445410799,0.0584101370304022,-0.424351293130392
94.225,-0.656387919687233,0.352227215460044,0.586869710139035,2.33476044965347,-1.20623965497694,-3.18862299049809,-0.853293927861545,0.153398127344804,-0.239767651813117,4.31214008947417,0.374084611036761,0.654357252950324,-0.840327694135791,-0.133738585815557,-0.17568050923879,-2.79902865357639,0.200574124097937,0.186188618335111,-0.95717545465823,-0.214606473176727,0.0351377836459685,0.656780551499718,0.0361319692503528,-0.425174313211018
94.23,-0.631702148025714,0.334027613170858,0.584339768832771,2.32613472082559,-1.20579619458288,-3.16979135775607,-0.858118483426807,0.145985852234396,-0.214293551674062,4.05527108209982,0.389058297508244,0.6594395084926,-0.841582239350226,-0.177549693022865,-0.132243537174815,-2.89707192018389,0.166854085074486,0.149108765665791,-0.952185732587771,-0.213809245295944,0.0372154614917827,0.673515830404428,-3.41075565673674e-05,-0.417997075137065
94.235,-0.601243099728486,0.353446211663657,0.584232794521031,2.36397146715574,-1.19160068266664,-3.14563006297792,-0.870394122569782,0.121556306607772,-0.197066604061207,3.87636623123791,0.387855308304286,0.665294831873382,-0.860328128787152,-0.214433968896653,-0.0760070743333497,-2.993771374614,0.129671658510475,0.115524504756614,-0.953080711345349,-0.200980269832748,0.0472624132831906,0.677846329244517,-0.0198648814112309,-0.41387474412116
94.24,-0.582288500340751,0.388537415206602,0.584379265667115,2.38999062786869,-1.17093984452218,-3.10209824977436,-0.885838792832154,0.0869209001556395,-0.176738499494887,3.68623236839258,0.381080908064865,0.670698057421428,-0.886776299875507,-0.239440928818439,-0.0303107931081005,-3.06295897332279,0.100726070130699,0.0917472732007903,-0.9497924014791,-0.197654491057484,0.056775358444166,0.687392594064041,-0.041257500563835,-0.399036384960365
94.245,-0.550751262496104,0.42596438847502,0.582816167819401,2.38136628195363,-1.13737254797323,-3.05001915488593,-0.892301413456145,0.0490120989191491,-0.155560029510936,3.54052935673267,0.385476836031604,0.675435511425607,-0.914801756577137,-0.255013396811512,0.00548506717991779,-3.10666864078044,0.0828125125737832,0.0727850540604078,-0.944243107658892,-0.187816967746438,0.0634861081552272,0.694356534029912,-0.0560611220311197,-0.386845994277556
94.25,-0.498811068115692,0.458524314222571,0.587056408199467,2.32220994134402,-1.08827558709894,-2.96257561676532,-0.900499709763002,-0.00217340070524108,-0.133657967777714,3.41551665401743,0.373342336403099,0.68323424220106,-0.938823102153796,-0.271783687991043,0.0355957850210353,-3.13115247817948,0.0767661167168035,0.0664397956088646,-0.941558027495121,-0.183021879810613,0.0693355547322947,0.699101448059082,-0.0846334885794212,-0.371304790650226
94.255,-0.445995605135105,0.464701763390294,0.602483832472851,2.22069198252344,-1.0186901465991,-2.83978176275954,-0.913810641635218,-0.0399525260026543,-0.114136669216211,3.29146823220385,0.353025993750129,0.684838063896344,-0.954158725793857,-0.27932986378757,0.0565949096099491,-3.11263499791656,0.0807277879771453,0.0726012758073074,-0.935787954681218,-0.175749805407295,0.0770207402242455,0.701578180696422,-0.111283106843169,-0.360149607730084
94.26,-0.416064445850728,0.46974969735336,0.625093208269919,2.15474163957034,-0.966297260373744,-2.73892581522813,-0.92435397822152,-0.0697479412354894,-0.0964406258204809,3.2192365551631,0.333514786686868,0.684533774852753,-0.963275581262713,-0.280640271663615,0.0715309584308841,-3.04097137979386,0.0999727980550637,0.0859229719878598,-0.932757371892529,-0.178718989081937,0.0774595289698784,0.715897043665441,-0.133460366193002,-0.355355336096849
94.265,-0.397056521670269,0.436911829541578,0.653464564097364,2.07372618719754,-0.903443617642474,-2.56847903141797,-0.927972396030924,-0.100028285721378,-0.0842849909048359,3.13991771320797,0.307921848274296,0.682301774479612,-0.957720425741636,-0.269436210465951,0.0742810331357862,-2.91221974047408,0.13102003689505,0.0973212147939914,-0.934901637981017,-0.17945585417367,0.071093789800159,0.725130804958264,-0.154634228927496,-0.351347597953032
94.27,-0.369480963418797,0.400066762578163,0.677934906627498,2.0192343743472,-0.836159593254257,-2.44728215350782,-0.920127648157605,-0.111463908600025,-0.0663631668617486,3.05095220346864,0.259110590320566,0.675661316226104,-0.949875956535051,-0.254140161387293,0.073396863961178,-2.77174844518662,0.148895669169426,0.102872405559992,-0.940015813810345,-0.177821144044093,0.0654789166120508,0.736788021677602,-0.168219763250681,-0.353514643707906
94.275,-0.344961556750645,0.38085095502151,0.697187504191559,1.9751013388643,-0.787362848453473,-2.29888651062743,-0.919433937864478,-0.120848188278716,-0.0545589929389438,2.98260134129691,0.236668497127169,0.671521927593993,-0.934344048960081,-0.237640596226778,0.0684741617769712,-2.58880603067559,0.16486312337959,0.0903733160272823,-0.95254617887472,-0.172161906204393,0.0600608186589743,0.732284647238642,-0.169394969940186,-0.360180500650278
94.28,-0.323241035019962,0.35517253837697,0.707921578639762,1.9186874350512,-0.737588920573097,-2.18327871527923,-0.917642869013219,-0.113861381604126,-0.0483893620897635,2.90310909592119,0.194302160156872,0.66629578054443,-0.920714788625461,-0.217745522591397,0.056678006574937,-2.40556378755606,0.179938405752182,0.0691582844720878,-0.959812064213174,-0.170621562115792,0.0438165153677946,0.734573124132056,-0.168973562244019,-0.366384541073593
94.285,-0.299959916691846,0.32756060741413,0.717009371405921,1.85428056625227,-0.690028305677449,-2.08120142159086,-0.916049285185606,-0.104005984070626,-0.0367718978018861,2.81243816269113,0.148344954122521,0.659519196804033,-0.910753915928599,-0.200168324677376,0.0480481752770872,-2.28285250613981,0.18567148181586,0.0559892764911215,-0.972100925343151,-0.170536106289179,0.0340779181281421,0.735455081757868,-0.162857237797909,-0.370765689537683
94.29,-0.287938601521191,0.291941051346307,0.735855788168398,1.78275826174041,-0.641357178019814,-1.99773491275216,-0.914406330611536,-0.100986121187406,-0.0222469114806625,2.69601107018429,0.0944881015879475,0.654000098358659,-0.907421929023192,-0.181710400483752,0.0533911631864418,-2.16182700235874,0.199533434222264,0.0403756029570078,-0.979075150305728,-0.175277664361698,0.0335905019125226,0.732789388333018,-0.148260774626683,-0.371467223249747
94.295,-0.289542142650039,0.251913493128782,0.776308010030123,1.70247823205445,-0.59224654520844,-1.91736679843977,-0.910259064157757,-0.108742120009606,-0.0118453916680422,2.58422215210394,0.0457775191284758,0.64758469692613,-0.904030379442771,-0.160810826121443,0.0577173228386082,-2.02957080269857,0.21248767702536,0.000573139233764398,-0.980929277003977,-0.16082446900914,0.0364837054871647,0.737804804118778,-0.128199087014142,-0.370464144986496
94.3,-0.301577579254481,0.214998324238813,0.835646605427526,1.6333587601365,-0.559451632863379,-1.84071150851351,-0.913764092244331,-0.119382452236489,-0.0180275643636606,2.4755272941082,-0.0095763496501988,0.624436692448011,-0.91600324089799,-0.133453269178548,0.0695483936056117,-1.8899561719946,0.228558431788557,-0.028555093820545,-0.985034376697589,-0.158714283016729,0.0305611933257974,0.736348878637451,-0.106320959858124,-0.354688239730368
94.305,-0.308069810892911,0.210940195464209,0.860498154229444,1.56347935238261,-0.568436096140233,-1.77782011946215,-0.908626894136064,-0.124300705731114,-0.00326095449984636,2.38118461227211,-0.0615621640259744,0.600545649361869,-0.916225974744009,-0.11610903180071,0.082498370819384,-1.78009097195364,0.223765202239068,-0.0442435340975637,-0.987028708649936,-0.163169206661686,0.0317817421892836,0.737871479462881,-0.101877574097414,-0.337602052203144
94.31,-0.294059407418635,0.216920248624887,0.869554046232638,1.46872532220295,-0.57755759053979,-1.71749697907096,-0.910835572027608,-0.128952035121638,0.0134499574286685,2.27996757687962,-0.116491247230079,0.57473475839907,-0.91945195938057,-0.104482267000362,0.0989010034406783,-1.68341020290382,0.207922327597302,-0.0684294028059814,-0.988046255273539,-0.169966929391549,0.0363509023305288,0.738429861628674,-0.0999672352227211,-0.327854308907923
94.315,-0.301321345311809,0.221579994496631,0.89301762168352,1.37794553491441,-0.581288717328352,-1.65711045065787,-0.91664977603808,-0.128151883773485,0.0177977302537522,2.17257040098552,-0.171827793042414,0.551757664588403,-0.923511348550244,-0.0979099900502065,0.110900890641805,-1.58241214008996,0.184135359921954,-0.0896049427431726,-0.987740637829005,-0.176206402566324,0.0409906095448774,0.735566724697552,-0.0962788230138746,-0.328937950267977
94.32,-0.321541241735537,0.218601662861534,0.918437609361823,1.29806989545498,-0.595430603437362,-1.59333315695939,-0.920810120159701,-0.1280681836117,0.012833333548525,2.05661678705332,-0.223025603774218,0.530578092473963,-0.921795731667645,-0.0958318885674772,0.114449614419315,-1.4678671489905,0.154490421553022,-0.102262393163788,-0.984133931875951,-0.180269632292852,0.0459253633095355,0.730803399663639,-0.102532100046439,-0.3376485209628
94.325,-0.341799022720985,0.212992307144578,0.932499197556851,1.23216559312726,-0.626986219701535,-1.52499158644907,-0.919941303262871,-0.138942563522633,0.0112493621108886,1.92836850126846,-0.267200658434786,0.507156143188467,-0.911651684001835,-0.0959920465045775,0.123285748543169,-1.35218170786577,0.122299712995498,-0.144512708498198,-0.981886877196702,-0.173004609689213,0.0525959674672454,0.729800620689901,-0.12760235108371,-0.34165975917174
94.33,-0.359385742637555,0.224000733947217,0.934292394196078,1.18547692949493,-0.664196193863911,-1.45401234934816,-0.92194510335041,-0.133786531132362,0.00124380559471829,1.8039857913601,-0.321235775824311,0.490843643188482,-0.907535587813635,-0.0984983480904479,0.118957520512452,-1.20272909412828,0.0929102830766199,-0.189877148600592,-0.981909468765756,-0.165616765814288,0.053939266007888,0.725365529752564,-0.143501551655224,-0.322606993967645
94.335,-0.376813476318382,0.247101274957345,0.938194479257086,1.13893593909099,-0.68645491123545,-1.38622446876535,-0.929099987916241,-0.132689181996033,-0.00605347350719577,1.7028600077233,-0.364654882236288,0.476556135036057,-0.911302055306394,-0.109283129624873,0.107356128477685,-1.06847440234149,0.0720766079729435,-0.262099702433677,-0.981515226697001,-0.162968181257156,0.0574858537696048,0.716483573907427,-0.146702955131079,-0.298802361152615
94.34,-0.396935382860527,0.249599664858951,0.923769521333161,1.100956963344,-0.715865729880594,-1.31902169010174,-0.939046504229715,-0.132482491985989,-0.0166426062645067,1.61589788680917,-0.400764973562458,0.469929979171095,-0.924645701168815,-0.123315911642542,0.0878904827382355,-0.974173029790288,0.0682405896672031,-0.325810261021514,-0.981257725822821,-0.161835621464843,0.0617756857451722,0.705045395847258,-0.149170509398972,-0.270555293985101
94.345,-0.408090795037548,0.249279037000259,0.901019091719721,1.06572754132362,-0.737035376741618,-1.24829955402855,-0.95043612901715,-0.135867372872171,-0.0240634870090055,1.53897401883552,-0.431596240185393,0.463868390033114,-0.941028163655568,-0.135060954601998,0.0650287075370787,-0.910785331423531,0.0792765571550901,-0.368376105865506,-0.980294170901456,-0.16160865734432,0.0657928476997017,0.694465976459985,-0.160671396315618,-0.240030427262866
94.35,-0.410874814110003,0.253547011428478,0.876462846137865,1.04302656424171,-0.745784719285845,-1.17378304588244,-0.961765115394868,-0.142349475631037,-0.0262318350293639,1.46997668029846,-0.457651330870476,0.456461307896663,-0.951676244328805,-0.140290497564405,0.0442833381513261,-0.852843110971063,0.0981519003972342,-0.394375445809115,-0.973098753933197,-0.171549428897513,0.0745907423813959,0.68958564768556,-0.178240613238152,-0.223437271333131
94.355,-0.410457043358605,0.263683967671614,0.854638837771451,1.04278922407554,-0.742291450818292,-1.09914842289067,-0.970916268305163,-0.144950463908822,-0.0308823319443241,1.41159249274282,-0.475463456705743,0.458440446400394,-0.966655600984516,-0.13864047888481,0.0148589412566317,-0.803757357273367,0.13447534352513,-0.40222916065318,-0.973645826804042,-0.170791457820901,0.075643786248359,0.677272445301863,-0.197715377734747,-0.212360136257978
94.36,-0.414986231199057,0.265663046748861,0.837762900945524,1.02405512784859,-0.734797803187413,-1.04575616638296,-0.975419048033465,-0.139248087725841,-0.038171008433073,1.36492768416067,-0.492458941554092,0.453094655796639,-0.981091014011986,-0.12719281113699,-0.0146865829451177,-0.75274772282672,0.165971944260612,-0.391827566935325,-0.972357585618447,-0.1696153960705,0.0760885722809062,0.670806803634394,-0.20096334271815,-0.208462509198264
94.365,-0.416477541572953,0.262204362237792,0.822287165536684,1.00290441311235,-0.711879392221356,-0.986827280330275,-0.975973394868207,-0.137422903470342,-0.0462826935063097,1.32235118958904,-0.504763502565575,0.451849201099488,-0.994812520647344,-0.112703038512851,-0.0472576431963893,-0.686906740048463,0.202947527411002,-0.369763013685561,-0.972877046292393,-0.165690511494619,0.0765553140049488,0.658090043047758,-0.204352805478332,-0.19984747892456
94.37,-0.420939139039954,0.254144246096686,0.808444060557833,0.982817238908635,-0.684031191083889,-0.927577400012711,-0.975111072066761,-0.140870565498176,-0.0504227736624391,1.28382729390746,-0.517688774727792,0.452841174443128,-1.00311134946393,-0.0952612184904062,-0.08436672051958,-0.606848813919157,0.243709089509509,-0.337398935657055,-0.976031904246381,-0.159847271924285,0.0773848971795671,0.632708387676105,-0.21955064764973,-0.182045258925321
